Subject	Age	Gender	Handedness	Rotation	Data	OraStart	TrialCount	TrialType	Prime	Target	Relatedness	rt	Resp
77	22	Female	Right	A	15/09/2017	11:38:17	1	Prova	wellness	well	4	764	2
77	22	Female	Right	A	15/09/2017	11:38:17	2	Prova	homeless	home	4	458	2
77	22	Female	Right	A	15/09/2017	11:38:17	3	Prova	tricky	tricker	4	639	2
77	22	Female	Right	A	15/09/2017	11:38:17	4	Prova	character	char	4	525	1
77	22	Female	Right	A	15/09/2017	11:38:17	5	Prova	translater	pulter	4	529	1
77	22	Female	Right	A	15/09/2017	11:38:17	6	Prova2	escape	exat	4	598	1
77	22	Female	Right	A	15/09/2017	11:38:17	7	Prova2	investigator	invest	4	553	1
77	22	Female	Right	A	15/09/2017	11:38:17	8	Prova2	examiner	exam	4	739	2
77	22	Female	Right	A	15/09/2017	11:38:17	9	Prova2	topic	top	4	689	2
77	22	Female	Right	A	15/09/2017	11:38:17	1	Warmup	unpack	pack	5	613	2
77	22	Female	Right	A	15/09/2017	11:38:17	2	Warmup	tartare	tariff	5	619	1
77	22	Female	Right	A	15/09/2017	11:38:17	3	Warmup	cowrie	sturms	5	620	1
77	22	Female	Right	A	15/09/2017	11:38:17	4	Warmup	cortex	newbie	5	676	1
77	22	Female	Right	A	15/09/2017	11:38:17	5	Warmup	pullma	pulm	5	993	1
77	22	Female	Right	A	15/09/2017	11:38:17	1	TrialPrimaParte	whisker	whisk	1	1022	1
77	22	Female	Right	A	15/09/2017	11:38:17	2	TrialPrimaParte	vigilant	vigan	2	763	1
77	22	Female	Right	A	15/09/2017	11:38:17	3	TrialPrimaParte	feathery	drunk	0	689	2
77	22	Female	Right	A	15/09/2017	11:38:17	4	TrialPrimaParte	selfless	audit	0	929	1
77	22	Female	Right	A	15/09/2017	11:38:17	5	TrialPrimaParte	fatal	fids	2	801	1
77	22	Female	Right	A	15/09/2017	11:38:17	6	TrialPrimaParte	production	depart	0	692	2
77	22	Female	Right	A	15/09/2017	11:38:17	7	TrialPrimaParte	hydration	povic	2	638	1
77	22	Female	Right	A	15/09/2017	11:38:17	8	TrialPrimaParte	snobby	snool	2	717	1
77	22	Female	Right	A	15/09/2017	11:38:17	9	TrialPrimaParte	booklet	text	0	645	2
77	22	Female	Right	A	15/09/2017	11:38:17	10	TrialPrimaParte	gravel	flixy	2	893	1
77	22	Female	Right	A	15/09/2017	11:38:17	11	TrialPrimaParte	plastic	spaxe	2	763	1
77	22	Female	Right	A	15/09/2017	11:38:17	12	TrialPrimaParte	equally	comma	0	963	1
77	22	Female	Right	A	15/09/2017	11:38:17	13	TrialPrimaParte	flicker	flick	1	630	2
77	22	Female	Right	A	15/09/2017	11:38:17	14	TrialPrimaParte	decision	posig	2	722	1
77	22	Female	Right	A	15/09/2017	11:38:17	15	TrialPrimaParte	advisory	advock	2	1852	1
77	22	Female	Right	A	15/09/2017	11:38:17	16	TrialPrimaParte	phoenix	blont	2	716	1
77	22	Female	Right	A	15/09/2017	11:38:17	17	TrialPrimaParte	viewer	view	1	538	2
77	22	Female	Right	A	15/09/2017	11:38:17	18	TrialPrimaParte	vicarage	erupt	0	758	2
77	22	Female	Right	A	15/09/2017	11:38:17	19	TrialPrimaParte	weird	weir	1	798	1
77	22	Female	Right	A	15/09/2017	11:38:17	20	TrialPrimaParte	trumpet	trump	1	571	2
77	22	Female	Right	A	15/09/2017	11:38:17	21	TrialPrimaParte	opposition	nunfy	2	737	1
77	22	Female	Right	A	15/09/2017	11:38:17	22	TrialPrimaParte	halogen	haly	2	741	1
77	22	Female	Right	A	15/09/2017	11:38:17	23	TrialPrimaParte	acidic	acid	1	542	2
77	22	Female	Right	A	15/09/2017	11:38:17	24	TrialPrimaParte	mimicry	quiet	0	607	2
77	22	Female	Right	A	15/09/2017	11:38:17	25	TrialPrimaParte	dysentery	ranin	2	936	1
77	22	Female	Right	A	15/09/2017	11:38:17	26	TrialPrimaParte	plucky	pluck	1	591	2
77	22	Female	Right	A	15/09/2017	11:38:17	27	TrialPrimaParte	crummy	meye	2	591	1
77	22	Female	Right	A	15/09/2017	11:38:17	28	TrialPrimaParte	actually	quest	0	651	2
77	22	Female	Right	A	15/09/2017	11:38:17	29	TrialPrimaParte	toaster	toast	1	549	2
77	22	Female	Right	A	15/09/2017	11:38:17	30	TrialPrimaParte	foetal	fongs	2	604	1
77	22	Female	Right	A	15/09/2017	11:38:17	31	TrialPrimaParte	grouse	gruf	2	655	1
77	22	Female	Right	A	15/09/2017	11:38:17	32	TrialPrimaParte	calmness	artist	0	596	2
77	22	Female	Right	A	15/09/2017	11:38:17	33	TrialPrimaParte	tactile	tact	1	548	2
77	22	Female	Right	A	15/09/2017	11:38:17	34	TrialPrimaParte	swotting	chuly	2	532	1
77	22	Female	Right	A	15/09/2017	11:38:17	35	TrialPrimaParte	watcher	angel	0	615	2
77	22	Female	Right	A	15/09/2017	11:38:17	36	TrialPrimaParte	unique	unzed	2	605	1
77	22	Female	Right	A	15/09/2017	11:38:17	37	TrialPrimaParte	warfare	broth	0	757	1
77	22	Female	Right	A	15/09/2017	11:38:17	38	TrialPrimaParte	polite	tind	2	700	1
77	22	Female	Right	A	15/09/2017	11:38:17	39	TrialPrimaParte	neutron	whese	2	795	1
77	22	Female	Right	A	15/09/2017	11:38:17	40	TrialPrimaParte	supplant	plosy	2	718	1
77	22	Female	Right	A	15/09/2017	11:38:17	41	TrialPrimaParte	irony	iron	1	615	2
77	22	Female	Right	A	15/09/2017	11:38:17	42	TrialPrimaParte	armoury	arwor	2	732	1
77	22	Female	Right	A	15/09/2017	11:38:17	43	TrialPrimaParte	dweller	crypt	0	687	2
77	22	Female	Right	A	15/09/2017	11:38:17	44	TrialPrimaParte	fabulous	smaply	2	664	1
77	22	Female	Right	A	15/09/2017	11:38:17	45	TrialPrimaParte	rabbit	rabbi	1	641	1
77	22	Female	Right	A	15/09/2017	11:38:17	46	TrialPrimaParte	culprit	cuti	2	723	1
77	22	Female	Right	A	15/09/2017	11:38:17	47	TrialPrimaParte	message	rosty	2	824	2
77	22	Female	Right	A	15/09/2017	11:38:17	48	TrialPrimaParte	fossilise	oxygen	0	674	2
77	22	Female	Right	A	15/09/2017	11:38:17	49	TrialPrimaParte	pottage	posch	2	892	2
77	22	Female	Right	A	15/09/2017	11:38:17	50	TrialPrimaParte	narrowly	scull	0	959	2
77	22	Female	Right	A	15/09/2017	11:38:17	51	TrialPrimaParte	abstract	fewtu	2	683	1
77	22	Female	Right	A	15/09/2017	11:38:17	52	TrialPrimaParte	wearily	diet	0	563	2
77	22	Female	Right	A	15/09/2017	11:38:17	53	TrialPrimaParte	scrooge	plich	2	687	1
77	22	Female	Right	A	15/09/2017	11:38:17	54	TrialPrimaParte	situation	govern	0	563	2
77	22	Female	Right	A	15/09/2017	11:38:17	55	TrialPrimaParte	killer	lalf	2	683	1
77	22	Female	Right	A	15/09/2017	11:38:17	56	TrialPrimaParte	grossly	villa	0	650	2
77	22	Female	Right	A	15/09/2017	11:38:17	57	TrialPrimaParte	upstart	pumy	2	658	1
77	22	Female	Right	A	15/09/2017	11:38:17	58	TrialPrimaParte	plush	plus	1	704	2
77	22	Female	Right	A	15/09/2017	11:38:17	59	TrialPrimaParte	coaster	coast	1	1023	1
77	22	Female	Right	A	15/09/2017	11:38:17	60	TrialPrimaParte	lethal	lerd	2	1013	1
77	22	Female	Right	A	15/09/2017	11:38:17	61	TrialPrimaParte	validity	infant	0	629	2
77	22	Female	Right	A	15/09/2017	11:38:17	62	TrialPrimaParte	vengeful	cherb	2	750	1
77	22	Female	Right	A	15/09/2017	11:38:17	63	TrialPrimaParte	maternal	malern	2	716	1
77	22	Female	Right	A	15/09/2017	11:38:17	64	TrialPrimaParte	tamponade	ruffy	2	995	2
77	22	Female	Right	A	15/09/2017	11:38:17	65	TrialPrimaParte	anxiously	legend	0	565	2
77	22	Female	Right	A	15/09/2017	11:38:17	66	TrialPrimaParte	jetty	kuty	2	756	1
77	22	Female	Right	A	15/09/2017	11:38:17	67	TrialPrimaParte	stroke	cligh	2	833	1
77	22	Female	Right	A	15/09/2017	11:38:17	68	TrialPrimaParte	bubble	glef	2	682	1
77	22	Female	Right	A	15/09/2017	11:38:17	69	TrialPrimaParte	ability	colon	0	587	2
77	22	Female	Right	A	15/09/2017	11:38:17	70	TrialPrimaParte	cousin	coul	2	656	2
77	22	Female	Right	A	15/09/2017	11:38:17	71	TrialPrimaParte	risky	risk	1	594	2
77	22	Female	Right	A	15/09/2017	11:38:17	72	TrialPrimaParte	ambush	amshy	2	735	1
77	22	Female	Right	A	15/09/2017	11:38:17	73	TrialPrimaParte	repertory	repty	2	730	1
77	22	Female	Right	A	15/09/2017	11:38:17	74	TrialPrimaParte	ceramic	cerbs	2	818	1
77	22	Female	Right	A	15/09/2017	11:38:17	75	TrialPrimaParte	snobbery	snotty	2	871	1
77	22	Female	Right	A	15/09/2017	11:38:17	76	TrialSecondaParte	loyally	buzz	0	692	2
77	22	Female	Right	A	15/09/2017	11:38:17	77	TrialSecondaParte	original	orive	2	563	1
77	22	Female	Right	A	15/09/2017	11:38:17	78	TrialSecondaParte	ample	amp	1	565	1
77	22	Female	Right	A	15/09/2017	11:38:17	79	TrialSecondaParte	revolutionary	intern	0	587	2
77	22	Female	Right	A	15/09/2017	11:38:17	80	TrialSecondaParte	legacy	lecy	2	702	1
77	22	Female	Right	A	15/09/2017	11:38:17	81	TrialSecondaParte	crush	bemp	2	569	1
77	22	Female	Right	A	15/09/2017	11:38:17	82	TrialSecondaParte	quartz	quart	1	617	2
77	22	Female	Right	A	15/09/2017	11:38:17	83	TrialSecondaParte	lively	licey	2	634	1
77	22	Female	Right	A	15/09/2017	11:38:17	84	TrialSecondaParte	graphic	blamp	2	603	1
77	22	Female	Right	A	15/09/2017	11:38:17	85	TrialSecondaParte	rancour	brits	2	729	2
77	22	Female	Right	A	15/09/2017	11:38:17	86	TrialSecondaParte	sensuous	secly	2	793	1
77	22	Female	Right	A	15/09/2017	11:38:17	87	TrialSecondaParte	dreadful	phone	0	560	2
77	22	Female	Right	A	15/09/2017	11:38:17	88	TrialSecondaParte	fixture	strul	2	821	1
77	22	Female	Right	A	15/09/2017	11:38:17	89	TrialSecondaParte	signet	sign	1	589	2
77	22	Female	Right	A	15/09/2017	11:38:17	90	TrialSecondaParte	citation	fuse	0	647	2
77	22	Female	Right	A	15/09/2017	11:38:17	91	TrialSecondaParte	faceless	facmod	2	576	1
77	22	Female	Right	A	15/09/2017	11:38:17	92	TrialSecondaParte	geisha	crove	2	816	2
77	22	Female	Right	A	15/09/2017	11:38:17	93	TrialSecondaParte	nymphet	nymph	1	562	1
77	22	Female	Right	A	15/09/2017	11:38:17	94	TrialSecondaParte	absurdity	plain	0	711	2
77	22	Female	Right	A	15/09/2017	11:38:17	95	TrialSecondaParte	content	conly	2	790	1
77	22	Female	Right	A	15/09/2017	11:38:17	96	TrialSecondaParte	extremism	liquid	0	578	2
77	22	Female	Right	A	15/09/2017	11:38:17	97	TrialSecondaParte	passel	turp	2	853	1
77	22	Female	Right	A	15/09/2017	11:38:17	98	TrialSecondaParte	twinkle	twin	1	635	2
77	22	Female	Right	A	15/09/2017	11:38:17	99	TrialSecondaParte	abstain	abter	2	741	1
77	22	Female	Right	A	15/09/2017	11:38:17	100	TrialSecondaParte	portal	balp	2	630	1
77	22	Female	Right	A	15/09/2017	11:38:17	101	TrialSecondaParte	guilty	guilt	1	662	2
77	22	Female	Right	A	15/09/2017	11:38:17	102	TrialSecondaParte	exemption	renew	0	867	2
77	22	Female	Right	A	15/09/2017	11:38:17	103	TrialSecondaParte	fanatic	fanty	2	738	1
77	22	Female	Right	A	15/09/2017	11:38:17	104	TrialSecondaParte	merrier	merks	2	679	1
77	22	Female	Right	A	15/09/2017	11:38:17	105	TrialSecondaParte	ribbon	ribed	2	658	1
77	22	Female	Right	A	15/09/2017	11:38:17	106	TrialSecondaParte	existent	gruel	0	673	2
77	22	Female	Right	A	15/09/2017	11:38:17	107	TrialSecondaParte	absence	agsel	2	797	1
77	22	Female	Right	A	15/09/2017	11:38:17	108	TrialSecondaParte	gastric	waser	2	904	1
77	22	Female	Right	A	15/09/2017	11:38:17	109	TrialSecondaParte	scanner	rast	2	592	2
77	22	Female	Right	A	15/09/2017	11:38:17	110	TrialSecondaParte	putty	putt	1	795	1
77	22	Female	Right	A	15/09/2017	11:38:17	111	TrialSecondaParte	syphilis	ruar	2	729	1
77	22	Female	Right	A	15/09/2017	11:38:17	112	TrialSecondaParte	button	butt	1	636	2
77	22	Female	Right	A	15/09/2017	11:38:17	113	TrialSecondaParte	defector	stamp	0	593	2
77	22	Female	Right	A	15/09/2017	11:38:17	114	TrialSecondaParte	bloody	blood	1	557	2
77	22	Female	Right	A	15/09/2017	11:38:17	115	TrialSecondaParte	utter	uls	2	619	1
77	22	Female	Right	A	15/09/2017	11:38:17	116	TrialSecondaParte	epileptic	candid	0	840	2
77	22	Female	Right	A	15/09/2017	11:38:17	117	TrialSecondaParte	justify	extra	0	713	2
77	22	Female	Right	A	15/09/2017	11:38:17	118	TrialSecondaParte	category	cagre	2	688	1
77	22	Female	Right	A	15/09/2017	11:38:17	119	TrialSecondaParte	blush	blif	2	734	1
77	22	Female	Right	A	15/09/2017	11:38:17	120	TrialSecondaParte	swivel	quat	2	808	1
77	22	Female	Right	A	15/09/2017	11:38:17	121	TrialSecondaParte	freeze	free	1	543	2
77	22	Female	Right	A	15/09/2017	11:38:17	122	TrialSecondaParte	voucher	baron	0	718	2
77	22	Female	Right	A	15/09/2017	11:38:17	123	TrialSecondaParte	maximum	suyte	2	642	1
77	22	Female	Right	A	15/09/2017	11:38:17	124	TrialSecondaParte	inherent	inpock	2	668	1
77	22	Female	Right	A	15/09/2017	11:38:17	125	TrialSecondaParte	finally	teach	0	593	2
77	22	Female	Right	A	15/09/2017	11:38:17	126	TrialSecondaParte	tract	trep	2	658	1
77	22	Female	Right	A	15/09/2017	11:38:17	127	TrialSecondaParte	mosaic	mip	2	753	1
77	22	Female	Right	A	15/09/2017	11:38:17	128	TrialSecondaParte	dusty	dusy	2	826	1
77	22	Female	Right	A	15/09/2017	11:38:17	129	TrialSecondaParte	tackler	lerf	2	726	1
77	22	Female	Right	A	15/09/2017	11:38:17	130	TrialSecondaParte	friendly	north	0	763	2
77	22	Female	Right	A	15/09/2017	11:38:17	131	TrialSecondaParte	difference	difrol	2	616	1
77	22	Female	Right	A	15/09/2017	11:38:17	132	TrialSecondaParte	medical	surf	0	551	2
77	22	Female	Right	A	15/09/2017	11:38:17	133	TrialSecondaParte	trashy	rell	2	700	1
77	22	Female	Right	A	15/09/2017	11:38:17	134	TrialSecondaParte	desert	dert	2	787	1
77	22	Female	Right	A	15/09/2017	11:38:17	135	TrialSecondaParte	tufted	tuft	1	901	2
77	22	Female	Right	A	15/09/2017	11:38:17	136	TrialSecondaParte	gluten	glut	1	908	1
77	22	Female	Right	A	15/09/2017	11:38:17	137	TrialSecondaParte	anaesthetic	invest	0	632	2
77	22	Female	Right	A	15/09/2017	11:38:17	138	TrialSecondaParte	composer	alarm	0	634	2
77	22	Female	Right	A	15/09/2017	11:38:17	139	TrialSecondaParte	archer	arch	1	527	2
77	22	Female	Right	A	15/09/2017	11:38:17	140	TrialSecondaParte	missive	float	0	650	2
77	22	Female	Right	A	15/09/2017	11:38:17	141	TrialSecondaParte	moulder	moure	2	774	1
77	22	Female	Right	A	15/09/2017	11:38:17	142	TrialSecondaParte	organic	organ	1	563	2
77	22	Female	Right	A	15/09/2017	11:38:17	143	TrialSecondaParte	equipment	agree	0	551	2
77	22	Female	Right	A	15/09/2017	11:38:17	144	TrialSecondaParte	centimetres	censar	2	854	1
77	22	Female	Right	A	15/09/2017	11:38:17	145	TrialSecondaParte	power	mord	2	744	1
77	22	Female	Right	A	15/09/2017	11:38:17	146	TrialSecondaParte	scruffy	thick	0	886	2
77	22	Female	Right	A	15/09/2017	11:38:17	147	TrialSecondaParte	obviously	secret	0	575	2
77	22	Female	Right	A	15/09/2017	11:38:17	148	TrialSecondaParte	boarder	board	1	768	2
77	22	Female	Right	A	15/09/2017	11:38:17	149	TrialSecondaParte	engage	yurd	2	673	1
77	22	Female	Right	A	15/09/2017	11:38:17	150	TrialSecondaParte	tendency	critic	0	571	2
77	22	Female	Right	A	15/09/2017	11:38:17	151	TrialTerzaParte	palpably	amen	0	599	2
77	22	Female	Right	A	15/09/2017	11:38:17	152	TrialTerzaParte	classic	clals	2	754	1
77	22	Female	Right	A	15/09/2017	11:38:17	153	TrialTerzaParte	biscuit	bist	2	626	1
77	22	Female	Right	A	15/09/2017	11:38:17	154	TrialTerzaParte	bomber	bomb	1	474	2
77	22	Female	Right	A	15/09/2017	11:38:17	155	TrialTerzaParte	twitch	twit	1	674	1
77	22	Female	Right	A	15/09/2017	11:38:17	156	TrialTerzaParte	hatchery	fighy	2	626	2
77	22	Female	Right	A	15/09/2017	11:38:17	157	TrialTerzaParte	foundry	brisk	0	600	2
77	22	Female	Right	A	15/09/2017	11:38:17	158	TrialTerzaParte	mourner	mourn	1	620	2
77	22	Female	Right	A	15/09/2017	11:38:17	159	TrialTerzaParte	religious	sisby	2	669	1
77	22	Female	Right	A	15/09/2017	11:38:17	160	TrialTerzaParte	brandy	brand	1	543	2
77	22	Female	Right	A	15/09/2017	11:38:17	161	TrialTerzaParte	monastery	fagor	2	690	1
77	22	Female	Right	A	15/09/2017	11:38:17	162	TrialTerzaParte	analogy	anopy	2	747	1
77	22	Female	Right	A	15/09/2017	11:38:17	163	TrialTerzaParte	vertical	verks	2	808	1
77	22	Female	Right	A	15/09/2017	11:38:17	164	TrialTerzaParte	rumbling	ether	0	607	2
77	22	Female	Right	A	15/09/2017	11:38:17	165	TrialTerzaParte	sufferer	gloss	0	650	2
77	22	Female	Right	A	15/09/2017	11:38:17	166	TrialTerzaParte	clanger	spant	2	653	1
77	22	Female	Right	A	15/09/2017	11:38:17	167	TrialTerzaParte	moisture	stub	0	711	1
77	22	Female	Right	A	15/09/2017	11:38:17	168	TrialTerzaParte	linkage	flion	2	730	1
77	22	Female	Right	A	15/09/2017	11:38:17	169	TrialTerzaParte	plonking	pluny	2	750	1
77	22	Female	Right	A	15/09/2017	11:38:17	170	TrialTerzaParte	stirrup	stir	1	617	2
77	22	Female	Right	A	15/09/2017	11:38:17	171	TrialTerzaParte	crafty	craft	1	562	2
77	22	Female	Right	A	15/09/2017	11:38:17	172	TrialTerzaParte	criminal	huare	2	651	1
77	22	Female	Right	A	15/09/2017	11:38:17	173	TrialTerzaParte	illicit	ilkis	2	621	1
77	22	Female	Right	A	15/09/2017	11:38:17	174	TrialTerzaParte	simplify	fleet	0	581	2
77	22	Female	Right	A	15/09/2017	11:38:17	175	TrialTerzaParte	sudden	verty	2	657	1
77	22	Female	Right	A	15/09/2017	11:38:17	176	TrialTerzaParte	piratical	pirent	2	727	1
77	22	Female	Right	A	15/09/2017	11:38:17	177	TrialTerzaParte	public	pub	1	536	2
77	22	Female	Right	A	15/09/2017	11:38:17	178	TrialTerzaParte	glade	glad	1	528	2
77	22	Female	Right	A	15/09/2017	11:38:17	179	TrialTerzaParte	socialiser	flepity	2	582	1
77	22	Female	Right	A	15/09/2017	11:38:17	180	TrialTerzaParte	creamy	cream	1	507	2
77	22	Female	Right	A	15/09/2017	11:38:17	181	TrialTerzaParte	olympic	olick	2	643	1
77	22	Female	Right	A	15/09/2017	11:38:17	182	TrialTerzaParte	damsel	dalp	2	556	1
77	22	Female	Right	A	15/09/2017	11:38:17	183	TrialTerzaParte	tributary	calin	2	634	1
77	22	Female	Right	A	15/09/2017	11:38:17	184	TrialTerzaParte	fibrosis	shuar	2	792	1
77	22	Female	Right	A	15/09/2017	11:38:17	185	TrialTerzaParte	education	educon	2	564	1
77	22	Female	Right	A	15/09/2017	11:38:17	186	TrialTerzaParte	united	unit	1	556	2
77	22	Female	Right	A	15/09/2017	11:38:17	187	TrialTerzaParte	edible	esigh	2	554	1
77	22	Female	Right	A	15/09/2017	11:38:17	188	TrialTerzaParte	stressful	abgaid	2	553	1
77	22	Female	Right	A	15/09/2017	11:38:17	189	TrialTerzaParte	cranky	crony	2	924	1
77	22	Female	Right	A	15/09/2017	11:38:17	190	TrialTerzaParte	believer	append	0	601	2
77	22	Female	Right	A	15/09/2017	11:38:17	191	TrialTerzaParte	pummel	syly	2	635	1
77	22	Female	Right	A	15/09/2017	11:38:17	192	TrialTerzaParte	soften	soft	1	575	2
77	22	Female	Right	A	15/09/2017	11:38:17	193	TrialTerzaParte	poetry	poet	1	534	2
77	22	Female	Right	A	15/09/2017	11:38:17	194	TrialTerzaParte	bearded	beard	1	554	2
77	22	Female	Right	A	15/09/2017	11:38:17	195	TrialTerzaParte	prosecution	leler	2	619	2
77	22	Female	Right	A	15/09/2017	11:38:17	196	TrialTerzaParte	airtight	aith	2	678	1
77	22	Female	Right	A	15/09/2017	11:38:17	197	TrialTerzaParte	physical	react	0	629	2
77	22	Female	Right	A	15/09/2017	11:38:17	198	TrialTerzaParte	unspoilt	nalky	2	516	1
77	22	Female	Right	A	15/09/2017	11:38:17	199	TrialTerzaParte	child	sild	2	556	1
77	22	Female	Right	A	15/09/2017	11:38:17	200	TrialTerzaParte	suburban	elect	0	578	2
77	22	Female	Right	A	15/09/2017	11:38:17	201	TrialTerzaParte	sovereign	sovign	2	769	1
77	22	Female	Right	A	15/09/2017	11:38:17	202	TrialTerzaParte	daring	dalig	2	614	1
77	22	Female	Right	A	15/09/2017	11:38:17	203	TrialTerzaParte	bulbous	bulb	1	718	2
77	22	Female	Right	A	15/09/2017	11:38:17	204	TrialTerzaParte	squawk	squaw	1	1121	1
77	22	Female	Right	A	15/09/2017	11:38:17	205	TrialTerzaParte	starter	disc	0	545	2
77	22	Female	Right	A	15/09/2017	11:38:17	206	TrialTerzaParte	murderous	invent	0	562	2
77	22	Female	Right	A	15/09/2017	11:38:17	207	TrialTerzaParte	paternal	siter	2	816	1
77	22	Female	Right	A	15/09/2017	11:38:17	208	TrialTerzaParte	snobbish	green	0	528	2
77	22	Female	Right	A	15/09/2017	11:38:17	209	TrialTerzaParte	addition	employ	0	617	2
77	22	Female	Right	A	15/09/2017	11:38:17	210	TrialTerzaParte	fisher	fims	2	838	1
77	22	Female	Right	A	15/09/2017	11:38:17	211	TrialTerzaParte	hearty	heart	1	730	2
77	22	Female	Right	A	15/09/2017	11:38:17	212	TrialTerzaParte	muffin	mufir	2	595	1
77	22	Female	Right	A	15/09/2017	11:38:17	213	TrialTerzaParte	idealism	splint	0	609	2
77	22	Female	Right	A	15/09/2017	11:38:17	214	TrialTerzaParte	postage	poth	2	969	1
77	22	Female	Right	A	15/09/2017	11:38:17	215	TrialTerzaParte	fizzle	fizz	1	1004	1
77	22	Female	Right	A	15/09/2017	11:38:17	216	TrialTerzaParte	treaty	treat	1	577	2
77	22	Female	Right	A	15/09/2017	11:38:17	217	TrialTerzaParte	answer	anwe	2	604	1
77	22	Female	Right	A	15/09/2017	11:38:17	218	TrialTerzaParte	perhaps	again	0	535	2
77	22	Female	Right	A	15/09/2017	11:38:17	219	TrialTerzaParte	traffic	trepy	2	611	1
77	22	Female	Right	A	15/09/2017	11:38:17	220	TrialTerzaParte	broiler	plum	0	548	2
77	22	Female	Right	A	15/09/2017	11:38:17	221	TrialTerzaParte	pulpit	pulp	1	554	2
77	22	Female	Right	A	15/09/2017	11:38:17	222	TrialTerzaParte	smelly	thuly	2	713	1
77	22	Female	Right	A	15/09/2017	11:38:17	223	TrialTerzaParte	trolley	troll	1	582	2
77	22	Female	Right	A	15/09/2017	11:38:17	224	TrialTerzaParte	highlight	gylpo	2	589	1
77	22	Female	Right	A	15/09/2017	11:38:17	225	TrialTerzaParte	smuggle	smug	1	665	2
77	22	Female	Right	A	15/09/2017	11:38:17	226	TrialQuartaParte	kinetic	kinse	2	686	1
77	22	Female	Right	A	15/09/2017	11:38:17	227	TrialQuartaParte	itinerary	itiner	2	690	1
77	22	Female	Right	A	15/09/2017	11:38:17	228	TrialQuartaParte	veteran	venic	2	578	1
77	22	Female	Right	A	15/09/2017	11:38:17	229	TrialQuartaParte	golfer	golf	1	562	2
77	22	Female	Right	A	15/09/2017	11:38:17	230	TrialQuartaParte	shunt	shun	1	571	1
77	22	Female	Right	A	15/09/2017	11:38:17	231	TrialQuartaParte	summit	sutty	2	601	1
77	22	Female	Right	A	15/09/2017	11:38:17	232	TrialQuartaParte	planet	plan	1	477	2
77	22	Female	Right	A	15/09/2017	11:38:17	233	TrialQuartaParte	friar	blyr	2	561	1
77	22	Female	Right	A	15/09/2017	11:38:17	234	TrialQuartaParte	number	numb	1	613	2
77	22	Female	Right	A	15/09/2017	11:38:17	235	TrialQuartaParte	timidly	arse	0	639	2
77	22	Female	Right	A	15/09/2017	11:38:17	236	TrialQuartaParte	jauntily	scald	0	1143	1
77	22	Female	Right	A	15/09/2017	11:38:17	237	TrialQuartaParte	trainee	train	1	574	2
77	22	Female	Right	A	15/09/2017	11:38:17	238	TrialQuartaParte	rebound	cous	2	627	1
77	22	Female	Right	A	15/09/2017	11:38:17	239	TrialQuartaParte	galaxy	gala	1	683	2
77	22	Female	Right	A	15/09/2017	11:38:17	240	TrialQuartaParte	revolutionise	sivert	2	608	1
77	22	Female	Right	A	15/09/2017	11:38:17	241	TrialQuartaParte	struggled	neigh	0	601	1
77	22	Female	Right	A	15/09/2017	11:38:17	242	TrialQuartaParte	passant	pasks	2	708	1
77	22	Female	Right	A	15/09/2017	11:38:17	243	TrialQuartaParte	griffin	spoff	2	632	1
77	22	Female	Right	A	15/09/2017	11:38:17	244	TrialQuartaParte	talker	claf	2	791	1
77	22	Female	Right	A	15/09/2017	11:38:17	245	TrialQuartaParte	stunt	stun	1	917	1
77	22	Female	Right	A	15/09/2017	11:38:17	246	TrialQuartaParte	jerkin	jerk	1	510	2
77	22	Female	Right	A	15/09/2017	11:38:17	247	TrialQuartaParte	service	count	0	547	2
77	22	Female	Right	A	15/09/2017	11:38:17	248	TrialQuartaParte	plunder	acre	0	650	2
77	22	Female	Right	A	15/09/2017	11:38:17	249	TrialQuartaParte	awaken	tood	2	778	1
77	22	Female	Right	A	15/09/2017	11:38:17	250	TrialQuartaParte	helmet	helm	1	522	2
77	22	Female	Right	A	15/09/2017	11:38:17	251	TrialQuartaParte	haulier	halfe	2	690	1
77	22	Female	Right	A	15/09/2017	11:38:17	252	TrialQuartaParte	sleet	slit	2	790	1
77	22	Female	Right	A	15/09/2017	11:38:17	253	TrialQuartaParte	forceps	force	1	569	2
77	22	Female	Right	A	15/09/2017	11:38:17	254	TrialQuartaParte	genetic	genth	2	640	1
77	22	Female	Right	A	15/09/2017	11:38:17	255	TrialQuartaParte	signal	quir	2	693	2
77	22	Female	Right	A	15/09/2017	11:38:17	256	TrialQuartaParte	reliable	blidar	2	843	1
77	22	Female	Right	A	15/09/2017	11:38:17	257	TrialQuartaParte	gloomy	gloom	1	471	2
77	22	Female	Right	A	15/09/2017	11:38:17	258	TrialQuartaParte	nincompoops	ninpoo	2	850	1
77	22	Female	Right	A	15/09/2017	11:38:17	259	TrialQuartaParte	manual	mals	2	773	1
77	22	Female	Right	A	15/09/2017	11:38:17	260	TrialQuartaParte	instruction	demon	0	599	2
77	22	Female	Right	A	15/09/2017	11:38:17	261	TrialQuartaParte	developer	court	0	509	2
77	22	Female	Right	A	15/09/2017	11:38:17	262	TrialQuartaParte	scrape	scrap	1	646	1
77	22	Female	Right	A	15/09/2017	11:38:17	263	TrialQuartaParte	vivacious	vicis	2	630	1
77	22	Female	Right	A	15/09/2017	11:38:17	264	TrialQuartaParte	sniper	snip	1	780	1
77	22	Female	Right	A	15/09/2017	11:38:17	265	TrialQuartaParte	shovel	shove	1	895	2
77	22	Female	Right	A	15/09/2017	11:38:17	266	TrialQuartaParte	routeing	tomed	2	973	1
77	22	Female	Right	A	15/09/2017	11:38:17	267	TrialQuartaParte	novelty	surge	0	549	2
77	22	Female	Right	A	15/09/2017	11:38:17	268	TrialQuartaParte	amateurish	inhibit	0	677	2
77	22	Female	Right	A	15/09/2017	11:38:17	269	TrialQuartaParte	enactment	cloud	0	607	2
77	22	Female	Right	A	15/09/2017	11:38:17	270	TrialQuartaParte	farcical	farxy	2	699	1
77	22	Female	Right	A	15/09/2017	11:38:17	271	TrialQuartaParte	adopted	adopt	1	565	2
77	22	Female	Right	A	15/09/2017	11:38:17	272	TrialQuartaParte	steadily	ration	0	1069	2
77	22	Female	Right	A	15/09/2017	11:38:17	273	TrialQuartaParte	chilly	chill	1	604	2
77	22	Female	Right	A	15/09/2017	11:38:17	274	TrialQuartaParte	asterix	cret	2	832	1
77	22	Female	Right	A	15/09/2017	11:38:17	275	TrialQuartaParte	masonry	dream	0	596	2
77	22	Female	Right	A	15/09/2017	11:38:17	276	TrialQuartaParte	fleshy	flesh	1	581	2
77	22	Female	Right	A	15/09/2017	11:38:17	277	TrialQuartaParte	filthy	filth	1	524	2
77	22	Female	Right	A	15/09/2017	11:38:17	278	TrialQuartaParte	marshy	marsh	1	800	2
77	22	Female	Right	A	15/09/2017	11:38:17	279	TrialQuartaParte	dialog	dial	1	831	2
77	22	Female	Right	A	15/09/2017	11:38:17	280	TrialQuartaParte	gaseous	stilt	0	1062	1
77	22	Female	Right	A	15/09/2017	11:38:17	281	TrialQuartaParte	lectureship	parent	0	793	2
77	22	Female	Right	A	15/09/2017	11:38:17	282	TrialQuartaParte	gluteal	abtle	2	665	1
77	22	Female	Right	A	15/09/2017	11:38:17	283	TrialQuartaParte	heaven	heave	1	883	2
77	22	Female	Right	A	15/09/2017	11:38:17	284	TrialQuartaParte	turmoil	furm	2	708	1
77	22	Female	Right	A	15/09/2017	11:38:17	285	TrialQuartaParte	raffle	rafel	2	683	1
77	22	Female	Right	A	15/09/2017	11:38:17	286	TrialQuartaParte	skylight	skigh	2	794	1
77	22	Female	Right	A	15/09/2017	11:38:17	287	TrialQuartaParte	benignly	basil	0	810	2
77	22	Female	Right	A	15/09/2017	11:38:17	288	TrialQuartaParte	bourbon	boun	2	911	1
77	22	Female	Right	A	15/09/2017	11:38:17	289	TrialQuartaParte	distantly	facet	0	900	2
77	22	Female	Right	A	15/09/2017	11:38:17	290	TrialQuartaParte	early	earl	1	1005	2
77	22	Female	Right	A	15/09/2017	11:38:17	291	TrialQuartaParte	crooked	crook	1	804	2
77	22	Female	Right	A	15/09/2017	11:38:17	292	TrialQuartaParte	sight	sigh	1	633	2
77	22	Female	Right	A	15/09/2017	11:38:17	293	TrialQuartaParte	penguin	phorb	2	645	1
77	22	Female	Right	A	15/09/2017	11:38:17	294	TrialQuartaParte	yardage	yage	2	653	1
77	22	Female	Right	A	15/09/2017	11:38:17	295	TrialQuartaParte	widowed	widow	1	764	2
77	22	Female	Right	A	15/09/2017	11:38:17	296	TrialQuartaParte	dragon	dron	2	896	1
77	22	Female	Right	A	15/09/2017	11:38:17	297	TrialQuartaParte	alcoholic	fruit	0	663	2
77	22	Female	Right	A	15/09/2017	11:38:17	298	TrialQuartaParte	gaiety	harse	2	996	1
77	22	Female	Right	A	15/09/2017	11:38:17	299	TrialQuartaParte	deficit	dety	2	909	1
77	22	Female	Right	A	15/09/2017	11:38:17	300	TrialQuartaParte	crikey	brize	2	1207	1
