Subject	Age	Gender	Handedness	Rotation	Data	OraStart	TrialCount	TrialType	Prime	Target	Relatedness	rt	Resp
13	27	Female	Right	A	10/11/2016	12:14:40	1	Prova	wellness	well	4	67576	2
13	27	Female	Right	A	10/11/2016	12:14:40	2	Prova	homeless	home	4	492	2
13	27	Female	Right	A	10/11/2016	12:14:40	3	Prova	tricky	tricker	4	455	1
13	27	Female	Right	A	10/11/2016	12:14:40	4	Prova	character	char	4	538	1
13	27	Female	Right	A	10/11/2016	12:14:40	5	Prova	translater	pulter	4	656	1
13	27	Female	Right	A	10/11/2016	12:14:40	6	Prova2	escape	exat	4	623	1
13	27	Female	Right	A	10/11/2016	12:14:40	7	Prova2	investigator	invest	4	741	2
13	27	Female	Right	A	10/11/2016	12:14:40	8	Prova2	examiner	exam	4	469	2
13	27	Female	Right	A	10/11/2016	12:14:40	9	Prova2	topic	top	4	460	2
13	27	Female	Right	A	10/11/2016	12:14:40	1	Warmup	unpack	pack	5	600	2
13	27	Female	Right	A	10/11/2016	12:14:40	2	Warmup	tartare	tariff	5	735	2
13	27	Female	Right	A	10/11/2016	12:14:40	3	Warmup	cowrie	sturms	5	510	1
13	27	Female	Right	A	10/11/2016	12:14:40	4	Warmup	cortex	newbie	5	518	1
13	27	Female	Right	A	10/11/2016	12:14:40	5	Warmup	pullma	pulm	5	757	1
13	27	Female	Right	A	10/11/2016	12:14:40	1	TrialPrimaParte	chilly	chill	1	669	1
13	27	Female	Right	A	10/11/2016	12:14:40	2	TrialPrimaParte	scrooge	plich	2	572	1
13	27	Female	Right	A	10/11/2016	12:14:40	3	TrialPrimaParte	jauntily	scald	0	694	1
13	27	Female	Right	A	10/11/2016	12:14:40	4	TrialPrimaParte	calmness	artist	0	534	2
13	27	Female	Right	A	10/11/2016	12:14:40	5	TrialPrimaParte	linkage	flion	2	506	1
13	27	Female	Right	A	10/11/2016	12:14:40	6	TrialPrimaParte	tract	trep	2	650	1
13	27	Female	Right	A	10/11/2016	12:14:40	7	TrialPrimaParte	equipment	agree	0	529	2
13	27	Female	Right	A	10/11/2016	12:14:40	8	TrialPrimaParte	struggled	neigh	0	639	2
13	27	Female	Right	A	10/11/2016	12:14:40	9	TrialPrimaParte	foundry	brisk	0	583	1
13	27	Female	Right	A	10/11/2016	12:14:40	10	TrialPrimaParte	message	rosty	2	548	1
13	27	Female	Right	A	10/11/2016	12:14:40	11	TrialPrimaParte	tactile	tact	1	634	1
13	27	Female	Right	A	10/11/2016	12:14:40	12	TrialPrimaParte	edible	esigh	2	641	1
13	27	Female	Right	A	10/11/2016	12:14:40	13	TrialPrimaParte	production	depart	0	531	2
13	27	Female	Right	A	10/11/2016	12:14:40	14	TrialPrimaParte	graphic	blamp	2	861	1
13	27	Female	Right	A	10/11/2016	12:14:40	15	TrialPrimaParte	crush	bemp	2	661	1
13	27	Female	Right	A	10/11/2016	12:14:40	16	TrialPrimaParte	rabbit	rabbi	1	614	1
13	27	Female	Right	A	10/11/2016	12:14:40	17	TrialPrimaParte	flicker	flick	1	622	2
13	27	Female	Right	A	10/11/2016	12:14:40	18	TrialPrimaParte	ribbon	ribed	2	770	2
13	27	Female	Right	A	10/11/2016	12:14:40	19	TrialPrimaParte	tributary	calin	2	678	1
13	27	Female	Right	A	10/11/2016	12:14:40	20	TrialPrimaParte	planet	plan	1	519	2
13	27	Female	Right	A	10/11/2016	12:14:40	21	TrialPrimaParte	skylight	skigh	2	856	2
13	27	Female	Right	A	10/11/2016	12:14:40	22	TrialPrimaParte	medical	surf	0	704	2
13	27	Female	Right	A	10/11/2016	12:14:40	23	TrialPrimaParte	traffic	trepy	2	1046	1
13	27	Female	Right	A	10/11/2016	12:14:40	24	TrialPrimaParte	geisha	crove	2	641	1
13	27	Female	Right	A	10/11/2016	12:14:40	25	TrialPrimaParte	illicit	ilkis	2	589	1
13	27	Female	Right	A	10/11/2016	12:14:40	26	TrialPrimaParte	public	pub	1	465	2
13	27	Female	Right	A	10/11/2016	12:14:40	27	TrialPrimaParte	reliable	blidar	2	447	1
13	27	Female	Right	A	10/11/2016	12:14:40	28	TrialPrimaParte	swivel	quat	2	618	1
13	27	Female	Right	A	10/11/2016	12:14:40	29	TrialPrimaParte	pulpit	pulp	1	556	2
13	27	Female	Right	A	10/11/2016	12:14:40	30	TrialPrimaParte	fatal	fids	2	570	1
13	27	Female	Right	A	10/11/2016	12:14:40	31	TrialPrimaParte	acidic	acid	1	455	2
13	27	Female	Right	A	10/11/2016	12:14:40	32	TrialPrimaParte	grouse	gruf	2	664	1
13	27	Female	Right	A	10/11/2016	12:14:40	33	TrialPrimaParte	hearty	heart	1	605	2
13	27	Female	Right	A	10/11/2016	12:14:40	34	TrialPrimaParte	developer	court	0	553	2
13	27	Female	Right	A	10/11/2016	12:14:40	35	TrialPrimaParte	trainee	train	1	437	2
13	27	Female	Right	A	10/11/2016	12:14:40	36	TrialPrimaParte	snobbish	green	0	513	2
13	27	Female	Right	A	10/11/2016	12:14:40	37	TrialPrimaParte	exemption	renew	0	494	1
13	27	Female	Right	A	10/11/2016	12:14:40	38	TrialPrimaParte	griffin	spoff	2	538	1
13	27	Female	Right	A	10/11/2016	12:14:40	39	TrialPrimaParte	criminal	huare	2	513	1
13	27	Female	Right	A	10/11/2016	12:14:40	40	TrialPrimaParte	addition	employ	0	637	2
13	27	Female	Right	A	10/11/2016	12:14:40	41	TrialPrimaParte	fizzle	fizz	1	678	1
13	27	Female	Right	A	10/11/2016	12:14:40	42	TrialPrimaParte	marshy	marsh	1	583	1
13	27	Female	Right	A	10/11/2016	12:14:40	43	TrialPrimaParte	putty	putt	1	888	2
13	27	Female	Right	A	10/11/2016	12:14:40	44	TrialPrimaParte	simplify	fleet	0	785	1
13	27	Female	Right	A	10/11/2016	12:14:40	45	TrialPrimaParte	nincompoops	ninpoo	2	823	1
13	27	Female	Right	A	10/11/2016	12:14:40	46	TrialPrimaParte	rebound	cous	2	781	1
13	27	Female	Right	A	10/11/2016	12:14:40	47	TrialPrimaParte	sovereign	sovign	2	993	1
13	27	Female	Right	A	10/11/2016	12:14:40	48	TrialPrimaParte	distantly	facet	0	572	1
13	27	Female	Right	A	10/11/2016	12:14:40	49	TrialPrimaParte	inherent	inpock	2	727	1
13	27	Female	Right	A	10/11/2016	12:14:40	50	TrialPrimaParte	engage	yurd	2	784	1
13	27	Female	Right	A	10/11/2016	12:14:40	51	TrialPrimaParte	mourner	mourn	1	770	1
13	27	Female	Right	A	10/11/2016	12:14:40	52	TrialPrimaParte	dragon	dron	2	604	1
13	27	Female	Right	A	10/11/2016	12:14:40	53	TrialPrimaParte	weird	weir	1	639	2
13	27	Female	Right	A	10/11/2016	12:14:40	54	TrialPrimaParte	mosaic	mip	2	575	1
13	27	Female	Right	A	10/11/2016	12:14:40	55	TrialPrimaParte	golfer	golf	1	536	2
13	27	Female	Right	A	10/11/2016	12:14:40	56	TrialPrimaParte	tackler	lerf	2	537	1
13	27	Female	Right	A	10/11/2016	12:14:40	57	TrialPrimaParte	filthy	filth	1	895	2
13	27	Female	Right	A	10/11/2016	12:14:40	58	TrialPrimaParte	scanner	rast	2	892	2
13	27	Female	Right	A	10/11/2016	12:14:40	59	TrialPrimaParte	child	sild	2	555	1
13	27	Female	Right	A	10/11/2016	12:14:40	60	TrialPrimaParte	feathery	drunk	0	549	2
13	27	Female	Right	A	10/11/2016	12:14:40	61	TrialPrimaParte	plush	plus	1	819	1
13	27	Female	Right	A	10/11/2016	12:14:40	62	TrialPrimaParte	vigilant	vigan	2	602	1
13	27	Female	Right	A	10/11/2016	12:14:40	63	TrialPrimaParte	friendly	north	0	1249	2
13	27	Female	Right	A	10/11/2016	12:14:40	64	TrialPrimaParte	finally	teach	0	722	2
13	27	Female	Right	A	10/11/2016	12:14:40	65	TrialPrimaParte	moisture	stub	0	539	1
13	27	Female	Right	A	10/11/2016	12:14:40	66	TrialPrimaParte	desert	dert	2	560	1
13	27	Female	Right	A	10/11/2016	12:14:40	67	TrialPrimaParte	wearily	diet	0	608	2
13	27	Female	Right	A	10/11/2016	12:14:40	68	TrialPrimaParte	talker	claf	2	491	1
13	27	Female	Right	A	10/11/2016	12:14:40	69	TrialPrimaParte	sufferer	gloss	0	537	2
13	27	Female	Right	A	10/11/2016	12:14:40	70	TrialPrimaParte	genetic	genth	2	575	1
13	27	Female	Right	A	10/11/2016	12:14:40	71	TrialPrimaParte	poetry	poet	1	444	2
13	27	Female	Right	A	10/11/2016	12:14:40	72	TrialPrimaParte	equally	comma	0	481	1
13	27	Female	Right	A	10/11/2016	12:14:40	73	TrialPrimaParte	revolutionise	sivert	2	555	1
13	27	Female	Right	A	10/11/2016	12:14:40	74	TrialPrimaParte	syphilis	ruar	2	576	1
13	27	Female	Right	A	10/11/2016	12:14:40	75	TrialPrimaParte	mimicry	quiet	0	467	2
13	27	Female	Right	A	10/11/2016	12:14:40	76	TrialSecondaParte	haulier	halfe	2	721	1
13	27	Female	Right	A	10/11/2016	12:14:40	77	TrialSecondaParte	ambush	amshy	2	454	1
13	27	Female	Right	A	10/11/2016	12:14:40	78	TrialSecondaParte	smelly	thuly	2	475	1
13	27	Female	Right	A	10/11/2016	12:14:40	79	TrialSecondaParte	unspoilt	nalky	2	459	1
13	27	Female	Right	A	10/11/2016	12:14:40	80	TrialSecondaParte	analogy	anopy	2	471	1
13	27	Female	Right	A	10/11/2016	12:14:40	81	TrialSecondaParte	socialiser	flepity	2	458	1
13	27	Female	Right	A	10/11/2016	12:14:40	82	TrialSecondaParte	fibrosis	shuar	2	437	1
13	27	Female	Right	A	10/11/2016	12:14:40	83	TrialSecondaParte	service	count	0	471	2
13	27	Female	Right	A	10/11/2016	12:14:40	84	TrialSecondaParte	absurdity	plain	0	508	2
13	27	Female	Right	A	10/11/2016	12:14:40	85	TrialSecondaParte	epileptic	candid	0	498	2
13	27	Female	Right	A	10/11/2016	12:14:40	86	TrialSecondaParte	itinerary	itiner	2	684	1
13	27	Female	Right	A	10/11/2016	12:14:40	87	TrialSecondaParte	fanatic	fanty	2	687	1
13	27	Female	Right	A	10/11/2016	12:14:40	88	TrialSecondaParte	justify	extra	0	452	2
13	27	Female	Right	A	10/11/2016	12:14:40	89	TrialSecondaParte	postage	poth	2	569	1
13	27	Female	Right	A	10/11/2016	12:14:40	90	TrialSecondaParte	bearded	beard	1	530	2
13	27	Female	Right	A	10/11/2016	12:14:40	91	TrialSecondaParte	biscuit	bist	2	618	1
13	27	Female	Right	A	10/11/2016	12:14:40	92	TrialSecondaParte	murderous	invent	0	516	2
13	27	Female	Right	A	10/11/2016	12:14:40	93	TrialSecondaParte	vicarage	erupt	0	780	2
13	27	Female	Right	A	10/11/2016	12:14:40	94	TrialSecondaParte	fossilise	oxygen	0	676	2
13	27	Female	Right	A	10/11/2016	12:14:40	95	TrialSecondaParte	deficit	dety	2	547	1
13	27	Female	Right	A	10/11/2016	12:14:40	96	TrialSecondaParte	obviously	secret	0	459	2
13	27	Female	Right	A	10/11/2016	12:14:40	97	TrialSecondaParte	piratical	pirent	2	551	1
13	27	Female	Right	A	10/11/2016	12:14:40	98	TrialSecondaParte	validity	infant	0	522	2
13	27	Female	Right	A	10/11/2016	12:14:40	99	TrialSecondaParte	pottage	posch	2	449	1
13	27	Female	Right	A	10/11/2016	12:14:40	100	TrialSecondaParte	plonking	pluny	2	672	1
13	27	Female	Right	A	10/11/2016	12:14:40	101	TrialSecondaParte	instruction	demon	0	544	2
13	27	Female	Right	A	10/11/2016	12:14:40	102	TrialSecondaParte	missive	float	0	576	2
13	27	Female	Right	A	10/11/2016	12:14:40	103	TrialSecondaParte	united	unit	1	450	2
13	27	Female	Right	A	10/11/2016	12:14:40	104	TrialSecondaParte	bubble	glef	2	592	1
13	27	Female	Right	A	10/11/2016	12:14:40	105	TrialSecondaParte	maximum	suyte	2	608	1
13	27	Female	Right	A	10/11/2016	12:14:40	106	TrialSecondaParte	existent	gruel	0	685	1
13	27	Female	Right	A	10/11/2016	12:14:40	107	TrialSecondaParte	cousin	coul	2	754	1
13	27	Female	Right	A	10/11/2016	12:14:40	108	TrialSecondaParte	boarder	board	1	488	2
13	27	Female	Right	A	10/11/2016	12:14:40	109	TrialSecondaParte	foetal	fongs	2	540	1
13	27	Female	Right	A	10/11/2016	12:14:40	110	TrialSecondaParte	palpably	amen	0	819	2
13	27	Female	Right	A	10/11/2016	12:14:40	111	TrialSecondaParte	sudden	verty	2	475	1
13	27	Female	Right	A	10/11/2016	12:14:40	112	TrialSecondaParte	creamy	cream	1	449	2
13	27	Female	Right	A	10/11/2016	12:14:40	113	TrialSecondaParte	bulbous	bulb	1	591	2
13	27	Female	Right	A	10/11/2016	12:14:40	114	TrialSecondaParte	monastery	fagor	2	570	1
13	27	Female	Right	A	10/11/2016	12:14:40	115	TrialSecondaParte	olympic	olick	2	586	1
13	27	Female	Right	A	10/11/2016	12:14:40	116	TrialSecondaParte	crafty	craft	1	966	2
13	27	Female	Right	A	10/11/2016	12:14:40	117	TrialSecondaParte	broiler	plum	0	537	1
13	27	Female	Right	A	10/11/2016	12:14:40	118	TrialSecondaParte	asterix	cret	2	656	1
13	27	Female	Right	A	10/11/2016	12:14:40	119	TrialSecondaParte	irony	iron	1	538	2
13	27	Female	Right	A	10/11/2016	12:14:40	120	TrialSecondaParte	crikey	brize	2	577	1
13	27	Female	Right	A	10/11/2016	12:14:40	121	TrialSecondaParte	enactment	cloud	0	969	2
13	27	Female	Right	A	10/11/2016	12:14:40	122	TrialSecondaParte	trashy	rell	2	582	1
13	27	Female	Right	A	10/11/2016	12:14:40	123	TrialSecondaParte	button	butt	1	717	1
13	27	Female	Right	A	10/11/2016	12:14:40	124	TrialSecondaParte	idealism	splint	0	691	2
13	27	Female	Right	A	10/11/2016	12:14:40	125	TrialSecondaParte	forceps	force	1	596	2
13	27	Female	Right	A	10/11/2016	12:14:40	126	TrialSecondaParte	vengeful	cherb	2	516	1
13	27	Female	Right	A	10/11/2016	12:14:40	127	TrialSecondaParte	trolley	troll	1	447	2
13	27	Female	Right	A	10/11/2016	12:14:40	128	TrialSecondaParte	whisker	whisk	1	1044	1
13	27	Female	Right	A	10/11/2016	12:14:40	129	TrialSecondaParte	smuggle	smug	1	755	1
13	27	Female	Right	A	10/11/2016	12:14:40	130	TrialSecondaParte	blush	blif	2	564	1
13	27	Female	Right	A	10/11/2016	12:14:40	131	TrialSecondaParte	tendency	critic	0	648	2
13	27	Female	Right	A	10/11/2016	12:14:40	132	TrialSecondaParte	anxiously	legend	0	491	2
13	27	Female	Right	A	10/11/2016	12:14:40	133	TrialSecondaParte	brandy	brand	1	525	2
13	27	Female	Right	A	10/11/2016	12:14:40	134	TrialSecondaParte	twitch	twit	1	525	1
13	27	Female	Right	A	10/11/2016	12:14:40	135	TrialSecondaParte	awaken	tood	2	660	1
13	27	Female	Right	A	10/11/2016	12:14:40	136	TrialSecondaParte	fisher	fims	2	520	1
13	27	Female	Right	A	10/11/2016	12:14:40	137	TrialSecondaParte	friar	blyr	2	467	1
13	27	Female	Right	A	10/11/2016	12:14:40	138	TrialSecondaParte	farcical	farxy	2	515	1
13	27	Female	Right	A	10/11/2016	12:14:40	139	TrialSecondaParte	signet	sign	1	684	2
13	27	Female	Right	A	10/11/2016	12:14:40	140	TrialSecondaParte	trumpet	trump	1	517	2
13	27	Female	Right	A	10/11/2016	12:14:40	141	TrialSecondaParte	revolutionary	intern	0	532	2
13	27	Female	Right	A	10/11/2016	12:14:40	142	TrialSecondaParte	legacy	lecy	2	596	1
13	27	Female	Right	A	10/11/2016	12:14:40	143	TrialSecondaParte	defector	stamp	0	724	2
13	27	Female	Right	A	10/11/2016	12:14:40	144	TrialSecondaParte	power	mord	2	583	1
13	27	Female	Right	A	10/11/2016	12:14:40	145	TrialSecondaParte	composer	alarm	0	648	2
13	27	Female	Right	A	10/11/2016	12:14:40	146	TrialSecondaParte	steadily	ration	0	862	1
13	27	Female	Right	A	10/11/2016	12:14:40	147	TrialSecondaParte	damsel	dalp	2	548	1
13	27	Female	Right	A	10/11/2016	12:14:40	148	TrialSecondaParte	rancour	brits	2	553	1
13	27	Female	Right	A	10/11/2016	12:14:40	149	TrialSecondaParte	education	educon	2	563	1
13	27	Female	Right	A	10/11/2016	12:14:40	150	TrialSecondaParte	passant	pasks	2	566	1
13	27	Female	Right	A	10/11/2016	12:14:40	151	TrialTerzaParte	vivacious	vicis	2	859	1
13	27	Female	Right	A	10/11/2016	12:14:40	152	TrialTerzaParte	kinetic	kinse	2	499	1
13	27	Female	Right	A	10/11/2016	12:14:40	153	TrialTerzaParte	sight	sigh	1	405	2
13	27	Female	Right	A	10/11/2016	12:14:40	154	TrialTerzaParte	plastic	spaxe	2	501	1
13	27	Female	Right	A	10/11/2016	12:14:40	155	TrialTerzaParte	hatchery	fighy	2	680	1
13	27	Female	Right	A	10/11/2016	12:14:40	156	TrialTerzaParte	highlight	gylpo	2	453	1
13	27	Female	Right	A	10/11/2016	12:14:40	157	TrialTerzaParte	amateurish	inhibit	0	681	2
13	27	Female	Right	A	10/11/2016	12:14:40	158	TrialTerzaParte	decision	posig	2	500	1
13	27	Female	Right	A	10/11/2016	12:14:40	159	TrialTerzaParte	daring	dalig	2	456	1
13	27	Female	Right	A	10/11/2016	12:14:40	160	TrialTerzaParte	polite	tind	2	460	1
13	27	Female	Right	A	10/11/2016	12:14:40	161	TrialTerzaParte	plunder	acre	0	528	1
13	27	Female	Right	A	10/11/2016	12:14:40	162	TrialTerzaParte	jetty	kuty	2	483	1
13	27	Female	Right	A	10/11/2016	12:14:40	163	TrialTerzaParte	gaseous	stilt	0	713	1
13	27	Female	Right	A	10/11/2016	12:14:40	164	TrialTerzaParte	yardage	yage	2	696	1
13	27	Female	Right	A	10/11/2016	12:14:40	165	TrialTerzaParte	ability	colon	0	615	2
13	27	Female	Right	A	10/11/2016	12:14:40	166	TrialTerzaParte	watcher	angel	0	576	2
13	27	Female	Right	A	10/11/2016	12:14:40	167	TrialTerzaParte	perhaps	again	0	538	2
13	27	Female	Right	A	10/11/2016	12:14:40	168	TrialTerzaParte	toaster	toast	1	606	2
13	27	Female	Right	A	10/11/2016	12:14:40	169	TrialTerzaParte	viewer	view	1	461	2
13	27	Female	Right	A	10/11/2016	12:14:40	170	TrialTerzaParte	clanger	spant	2	490	1
13	27	Female	Right	A	10/11/2016	12:14:40	171	TrialTerzaParte	masonry	dream	0	603	2
13	27	Female	Right	A	10/11/2016	12:14:40	172	TrialTerzaParte	early	earl	1	658	2
13	27	Female	Right	A	10/11/2016	12:14:40	173	TrialTerzaParte	vertical	verks	2	489	1
13	27	Female	Right	A	10/11/2016	12:14:40	174	TrialTerzaParte	sleet	slit	2	475	1
13	27	Female	Right	A	10/11/2016	12:14:40	175	TrialTerzaParte	freeze	free	1	451	2
13	27	Female	Right	A	10/11/2016	12:14:40	176	TrialTerzaParte	neutron	whese	2	680	1
13	27	Female	Right	A	10/11/2016	12:14:40	177	TrialTerzaParte	summit	sutty	2	449	1
13	27	Female	Right	A	10/11/2016	12:14:40	178	TrialTerzaParte	dialog	dial	1	590	1
13	27	Female	Right	A	10/11/2016	12:14:40	179	TrialTerzaParte	helmet	helm	1	783	2
13	27	Female	Right	A	10/11/2016	12:14:40	180	TrialTerzaParte	supplant	plosy	2	458	1
13	27	Female	Right	A	10/11/2016	12:14:40	181	TrialTerzaParte	passel	turp	2	492	1
13	27	Female	Right	A	10/11/2016	12:14:40	182	TrialTerzaParte	voucher	baron	0	607	2
13	27	Female	Right	A	10/11/2016	12:14:40	183	TrialTerzaParte	treaty	treat	1	520	2
13	27	Female	Right	A	10/11/2016	12:14:40	184	TrialTerzaParte	dusty	dusy	2	423	1
13	27	Female	Right	A	10/11/2016	12:14:40	185	TrialTerzaParte	airtight	aith	2	542	1
13	27	Female	Right	A	10/11/2016	12:14:40	186	TrialTerzaParte	gluteal	abtle	2	822	1
13	27	Female	Right	A	10/11/2016	12:14:40	187	TrialTerzaParte	starter	disc	0	714	1
13	27	Female	Right	A	10/11/2016	12:14:40	188	TrialTerzaParte	routeing	tomed	2	752	1
13	27	Female	Right	A	10/11/2016	12:14:40	189	TrialTerzaParte	swotting	chuly	2	1081	1
13	27	Female	Right	A	10/11/2016	12:14:40	190	TrialTerzaParte	halogen	haly	2	498	1
13	27	Female	Right	A	10/11/2016	12:14:40	191	TrialTerzaParte	fleshy	flesh	1	519	2
13	27	Female	Right	A	10/11/2016	12:14:40	192	TrialTerzaParte	stunt	stun	1	550	1
13	27	Female	Right	A	10/11/2016	12:14:40	193	TrialTerzaParte	snobby	snool	2	600	1
13	27	Female	Right	A	10/11/2016	12:14:40	194	TrialTerzaParte	timidly	arse	0	782	1
13	27	Female	Right	A	10/11/2016	12:14:40	195	TrialTerzaParte	fabulous	smaply	2	668	1
13	27	Female	Right	A	10/11/2016	12:14:40	196	TrialTerzaParte	raffle	rafel	2	563	1
13	27	Female	Right	A	10/11/2016	12:14:40	197	TrialTerzaParte	stirrup	stir	1	449	1
13	27	Female	Right	A	10/11/2016	12:14:40	198	TrialTerzaParte	signal	quir	2	761	1
13	27	Female	Right	A	10/11/2016	12:14:40	199	TrialTerzaParte	killer	lalf	2	523	1
13	27	Female	Right	A	10/11/2016	12:14:40	200	TrialTerzaParte	bomber	bomb	1	454	2
13	27	Female	Right	A	10/11/2016	12:14:40	201	TrialTerzaParte	content	conly	2	456	1
13	27	Female	Right	A	10/11/2016	12:14:40	202	TrialTerzaParte	warfare	broth	0	675	1
13	27	Female	Right	A	10/11/2016	12:14:40	203	TrialTerzaParte	culprit	cuti	2	456	1
13	27	Female	Right	A	10/11/2016	12:14:40	204	TrialTerzaParte	plucky	pluck	1	777	1
13	27	Female	Right	A	10/11/2016	12:14:40	205	TrialTerzaParte	archer	arch	1	772	2
13	27	Female	Right	A	10/11/2016	12:14:40	206	TrialTerzaParte	gravel	flixy	2	448	1
13	27	Female	Right	A	10/11/2016	12:14:40	207	TrialTerzaParte	soften	soft	1	440	2
13	27	Female	Right	A	10/11/2016	12:14:40	208	TrialTerzaParte	narrowly	scull	0	448	1
13	27	Female	Right	A	10/11/2016	12:14:40	209	TrialTerzaParte	lethal	lerd	2	448	1
13	27	Female	Right	A	10/11/2016	12:14:40	210	TrialTerzaParte	citation	fuse	0	761	2
13	27	Female	Right	A	10/11/2016	12:14:40	211	TrialTerzaParte	stressful	abgaid	2	715	1
13	27	Female	Right	A	10/11/2016	12:14:40	212	TrialTerzaParte	galaxy	gala	1	825	1
13	27	Female	Right	A	10/11/2016	12:14:40	213	TrialTerzaParte	novelty	surge	0	828	2
13	27	Female	Right	A	10/11/2016	12:14:40	214	TrialTerzaParte	veteran	venic	2	696	1
13	27	Female	Right	A	10/11/2016	12:14:40	215	TrialTerzaParte	portal	balp	2	467	1
13	27	Female	Right	A	10/11/2016	12:14:40	216	TrialTerzaParte	loyally	buzz	0	696	2
13	27	Female	Right	A	10/11/2016	12:14:40	217	TrialTerzaParte	gaiety	harse	2	578	1
13	27	Female	Right	A	10/11/2016	12:14:40	218	TrialTerzaParte	moulder	moure	2	544	1
13	27	Female	Right	A	10/11/2016	12:14:40	219	TrialTerzaParte	actually	quest	0	744	1
13	27	Female	Right	A	10/11/2016	12:14:40	220	TrialTerzaParte	heaven	heave	1	595	2
13	27	Female	Right	A	10/11/2016	12:14:40	221	TrialTerzaParte	widowed	widow	1	762	1
13	27	Female	Right	A	10/11/2016	12:14:40	222	TrialTerzaParte	cranky	crony	2	707	1
13	27	Female	Right	A	10/11/2016	12:14:40	223	TrialTerzaParte	bourbon	boun	2	774	1
13	27	Female	Right	A	10/11/2016	12:14:40	224	TrialTerzaParte	fixture	strul	2	908	1
13	27	Female	Right	A	10/11/2016	12:14:40	225	TrialTerzaParte	answer	anwe	2	829	1
13	27	Female	Right	A	10/11/2016	12:14:40	226	TrialQuartaParte	situation	govern	0	838	2
13	27	Female	Right	A	10/11/2016	12:14:40	227	TrialQuartaParte	hydration	povic	2	477	1
13	27	Female	Right	A	10/11/2016	12:14:40	228	TrialQuartaParte	suburban	elect	0	851	1
13	27	Female	Right	A	10/11/2016	12:14:40	229	TrialQuartaParte	jerkin	jerk	1	683	2
13	27	Female	Right	A	10/11/2016	12:14:40	230	TrialQuartaParte	crooked	crook	1	662	2
13	27	Female	Right	A	10/11/2016	12:14:40	231	TrialQuartaParte	guilty	guilt	1	685	1
13	27	Female	Right	A	10/11/2016	12:14:40	232	TrialQuartaParte	abstract	fewtu	2	845	1
13	27	Female	Right	A	10/11/2016	12:14:40	233	TrialQuartaParte	repertory	repty	2	853	1
13	27	Female	Right	A	10/11/2016	12:14:40	234	TrialQuartaParte	selfless	audit	0	811	1
13	27	Female	Right	A	10/11/2016	12:14:40	235	TrialQuartaParte	original	orive	2	601	1
13	27	Female	Right	A	10/11/2016	12:14:40	236	TrialQuartaParte	gastric	waser	2	483	1
13	27	Female	Right	A	10/11/2016	12:14:40	237	TrialQuartaParte	sensuous	secly	2	753	1
13	27	Female	Right	A	10/11/2016	12:14:40	238	TrialQuartaParte	scrape	scrap	1	570	1
13	27	Female	Right	A	10/11/2016	12:14:40	239	TrialQuartaParte	dreadful	phone	0	517	2
13	27	Female	Right	A	10/11/2016	12:14:40	240	TrialQuartaParte	booklet	text	0	570	2
13	27	Female	Right	A	10/11/2016	12:14:40	241	TrialQuartaParte	classic	clals	2	564	1
13	27	Female	Right	A	10/11/2016	12:14:40	242	TrialQuartaParte	dysentery	ranin	2	598	1
13	27	Female	Right	A	10/11/2016	12:14:40	243	TrialQuartaParte	adopted	adopt	1	625	2
13	27	Female	Right	A	10/11/2016	12:14:40	244	TrialQuartaParte	ample	amp	1	559	1
13	27	Female	Right	A	10/11/2016	12:14:40	245	TrialQuartaParte	number	numb	1	488	1
13	27	Female	Right	A	10/11/2016	12:14:40	246	TrialQuartaParte	muffin	mufir	2	462	1
13	27	Female	Right	A	10/11/2016	12:14:40	247	TrialQuartaParte	benignly	basil	0	691	1
13	27	Female	Right	A	10/11/2016	12:14:40	248	TrialQuartaParte	sniper	snip	1	403	1
13	27	Female	Right	A	10/11/2016	12:14:40	249	TrialQuartaParte	turmoil	furm	2	678	1
13	27	Female	Right	A	10/11/2016	12:14:40	250	TrialQuartaParte	alcoholic	fruit	0	586	2
13	27	Female	Right	A	10/11/2016	12:14:40	251	TrialQuartaParte	bloody	blood	1	470	2
13	27	Female	Right	A	10/11/2016	12:14:40	252	TrialQuartaParte	snobbery	snotty	2	476	1
13	27	Female	Right	A	10/11/2016	12:14:40	253	TrialQuartaParte	unique	unzed	2	727	1
13	27	Female	Right	A	10/11/2016	12:14:40	254	TrialQuartaParte	armoury	arwor	2	622	1
13	27	Female	Right	A	10/11/2016	12:14:40	255	TrialQuartaParte	scruffy	thick	0	748	1
13	27	Female	Right	A	10/11/2016	12:14:40	256	TrialQuartaParte	prosecution	leler	2	562	1
13	27	Female	Right	A	10/11/2016	12:14:40	257	TrialQuartaParte	advisory	advock	2	633	1
13	27	Female	Right	A	10/11/2016	12:14:40	258	TrialQuartaParte	lectureship	parent	0	470	2
13	27	Female	Right	A	10/11/2016	12:14:40	259	TrialQuartaParte	squawk	squaw	1	716	1
13	27	Female	Right	A	10/11/2016	12:14:40	260	TrialQuartaParte	pummel	syly	2	495	1
13	27	Female	Right	A	10/11/2016	12:14:40	261	TrialQuartaParte	abstain	abter	2	1022	1
13	27	Female	Right	A	10/11/2016	12:14:40	262	TrialQuartaParte	glade	glad	1	575	2
13	27	Female	Right	A	10/11/2016	12:14:40	263	TrialQuartaParte	grossly	villa	0	864	1
13	27	Female	Right	A	10/11/2016	12:14:40	264	TrialQuartaParte	crummy	meye	2	872	1
13	27	Female	Right	A	10/11/2016	12:14:40	265	TrialQuartaParte	category	cagre	2	798	1
13	27	Female	Right	A	10/11/2016	12:14:40	266	TrialQuartaParte	faceless	facmod	2	914	1
13	27	Female	Right	A	10/11/2016	12:14:40	267	TrialQuartaParte	quartz	quart	1	768	1
13	27	Female	Right	A	10/11/2016	12:14:40	268	TrialQuartaParte	merrier	merks	2	771	1
13	27	Female	Right	A	10/11/2016	12:14:40	269	TrialQuartaParte	phoenix	blont	2	1009	1
13	27	Female	Right	A	10/11/2016	12:14:40	270	TrialQuartaParte	paternal	siter	2	880	1
13	27	Female	Right	A	10/11/2016	12:14:40	271	TrialQuartaParte	shunt	shun	1	912	1
13	27	Female	Right	A	10/11/2016	12:14:40	272	TrialQuartaParte	penguin	phorb	2	1088	1
13	27	Female	Right	A	10/11/2016	12:14:40	273	TrialQuartaParte	lively	licey	2	843	1
13	27	Female	Right	A	10/11/2016	12:14:40	274	TrialQuartaParte	nymphet	nymph	1	757	1
13	27	Female	Right	A	10/11/2016	12:14:40	275	TrialQuartaParte	risky	risk	1	551	2
13	27	Female	Right	A	10/11/2016	12:14:40	276	TrialQuartaParte	opposition	nunfy	2	666	1
13	27	Female	Right	A	10/11/2016	12:14:40	277	TrialQuartaParte	rumbling	ether	0	808	1
13	27	Female	Right	A	10/11/2016	12:14:40	278	TrialQuartaParte	tamponade	ruffy	2	523	1
13	27	Female	Right	A	10/11/2016	12:14:40	279	TrialQuartaParte	absence	agsel	2	696	1
13	27	Female	Right	A	10/11/2016	12:14:40	280	TrialQuartaParte	anaesthetic	invest	0	554	2
13	27	Female	Right	A	10/11/2016	12:14:40	281	TrialQuartaParte	extremism	liquid	0	533	2
13	27	Female	Right	A	10/11/2016	12:14:40	282	TrialQuartaParte	manual	mals	2	463	1
13	27	Female	Right	A	10/11/2016	12:14:40	283	TrialQuartaParte	difference	difrol	2	680	1
13	27	Female	Right	A	10/11/2016	12:14:40	284	TrialQuartaParte	ceramic	cerbs	2	628	1
13	27	Female	Right	A	10/11/2016	12:14:40	285	TrialQuartaParte	religious	sisby	2	671	1
13	27	Female	Right	A	10/11/2016	12:14:40	286	TrialQuartaParte	centimetres	censar	2	600	1
13	27	Female	Right	A	10/11/2016	12:14:40	287	TrialQuartaParte	coaster	coast	1	480	2
13	27	Female	Right	A	10/11/2016	12:14:40	288	TrialQuartaParte	physical	react	0	943	2
13	27	Female	Right	A	10/11/2016	12:14:40	289	TrialQuartaParte	gluten	glut	1	675	1
13	27	Female	Right	A	10/11/2016	12:14:40	290	TrialQuartaParte	shovel	shove	1	480	1
13	27	Female	Right	A	10/11/2016	12:14:40	291	TrialQuartaParte	organic	organ	1	409	2
13	27	Female	Right	A	10/11/2016	12:14:40	292	TrialQuartaParte	maternal	malern	2	533	1
13	27	Female	Right	A	10/11/2016	12:14:40	293	TrialQuartaParte	gloomy	gloom	1	569	2
13	27	Female	Right	A	10/11/2016	12:14:40	294	TrialQuartaParte	tufted	tuft	1	525	1
13	27	Female	Right	A	10/11/2016	12:14:40	295	TrialQuartaParte	upstart	pumy	2	612	1
13	27	Female	Right	A	10/11/2016	12:14:40	296	TrialQuartaParte	utter	uls	2	433	1
13	27	Female	Right	A	10/11/2016	12:14:40	297	TrialQuartaParte	stroke	cligh	2	457	1
13	27	Female	Right	A	10/11/2016	12:14:40	298	TrialQuartaParte	twinkle	twin	1	538	2
13	27	Female	Right	A	10/11/2016	12:14:40	299	TrialQuartaParte	dweller	crypt	0	565	1
13	27	Female	Right	A	10/11/2016	12:14:40	300	TrialQuartaParte	believer	append	0	1020	2
