Subject	Age	Gender	Handedness	Rotation	Data	OraStart	TrialCount	TrialType	Prime	Target	Relatedness	rt	Resp
34	23	Male	Right	B	30/11/2016	16:20:56	1	Prova	wellness	well	4	568	2
34	23	Male	Right	B	30/11/2016	16:20:56	2	Prova	homeless	home	4	385	2
34	23	Male	Right	B	30/11/2016	16:20:56	3	Prova	tricky	tricker	4	707	1
34	23	Male	Right	B	30/11/2016	16:20:56	4	Prova	character	char	4	622	1
34	23	Male	Right	B	30/11/2016	16:20:56	5	Prova	translater	pulter	4	532	1
34	23	Male	Right	B	30/11/2016	16:20:56	6	Prova2	escape	exat	4	533	1
34	23	Male	Right	B	30/11/2016	16:20:56	7	Prova2	investigator	invest	4	523	2
34	23	Male	Right	B	30/11/2016	16:20:56	8	Prova2	examiner	exam	4	432	2
34	23	Male	Right	B	30/11/2016	16:20:56	9	Prova2	topic	top	4	437	2
34	23	Male	Right	B	30/11/2016	16:20:56	1	Warmup	unpack	pack	5	510	2
34	23	Male	Right	B	30/11/2016	16:20:56	2	Warmup	tartare	tariff	5	575	1
34	23	Male	Right	B	30/11/2016	16:20:56	3	Warmup	cowrie	sturms	5	712	1
34	23	Male	Right	B	30/11/2016	16:20:56	4	Warmup	cortex	newbie	5	609	2
34	23	Male	Right	B	30/11/2016	16:20:56	5	Warmup	pullma	pulm	5	648	1
34	23	Male	Right	B	30/11/2016	16:20:56	1	TrialPrimaParte	polite	tind	2	555	1
34	23	Male	Right	B	30/11/2016	16:20:56	2	TrialPrimaParte	grueling	gruel	1	580	2
34	23	Male	Right	B	30/11/2016	16:20:56	3	TrialPrimaParte	against	again	1	458	2
34	23	Male	Right	B	30/11/2016	16:20:56	4	TrialPrimaParte	merrier	merks	2	644	1
34	23	Male	Right	B	30/11/2016	16:20:56	5	TrialPrimaParte	surgeon	surge	1	530	2
34	23	Male	Right	B	30/11/2016	16:20:56	6	TrialPrimaParte	paternal	siter	2	532	1
34	23	Male	Right	B	30/11/2016	16:20:56	7	TrialPrimaParte	fruitless	fruit	1	445	2
34	23	Male	Right	B	30/11/2016	16:20:56	8	TrialPrimaParte	difference	difrol	2	458	1
34	23	Male	Right	B	30/11/2016	16:20:56	9	TrialPrimaParte	centimetres	censar	2	660	1
34	23	Male	Right	B	30/11/2016	16:20:56	10	TrialPrimaParte	keeper	gala	0	910	1
34	23	Male	Right	B	30/11/2016	16:20:56	11	TrialPrimaParte	message	rosty	2	719	1
34	23	Male	Right	B	30/11/2016	16:20:56	12	TrialPrimaParte	fishy	putt	0	756	1
34	23	Male	Right	B	30/11/2016	16:20:56	13	TrialPrimaParte	itchy	shun	0	861	2
34	23	Male	Right	B	30/11/2016	16:20:56	14	TrialPrimaParte	finely	chill	0	603	2
34	23	Male	Right	B	30/11/2016	16:20:56	15	TrialPrimaParte	moulder	moure	2	452	1
34	23	Male	Right	B	30/11/2016	16:20:56	16	TrialPrimaParte	really	numb	0	479	2
34	23	Male	Right	B	30/11/2016	16:20:56	17	TrialPrimaParte	factual	board	0	578	2
34	23	Male	Right	B	30/11/2016	16:20:56	18	TrialPrimaParte	cookery	train	0	396	2
34	23	Male	Right	B	30/11/2016	16:20:56	19	TrialPrimaParte	killer	lalf	2	477	1
34	23	Male	Right	B	30/11/2016	16:20:56	20	TrialPrimaParte	artistry	artist	1	454	2
34	23	Male	Right	B	30/11/2016	16:20:56	21	TrialPrimaParte	crummy	meye	2	405	1
34	23	Male	Right	B	30/11/2016	16:20:56	22	TrialPrimaParte	vivacious	vicis	2	717	1
34	23	Male	Right	B	30/11/2016	16:20:56	23	TrialPrimaParte	hydration	povic	2	512	1
34	23	Male	Right	B	30/11/2016	16:20:56	24	TrialPrimaParte	coyness	whisk	0	726	1
34	23	Male	Right	B	30/11/2016	16:20:56	25	TrialPrimaParte	reliable	blidar	2	636	1
34	23	Male	Right	B	30/11/2016	16:20:56	26	TrialPrimaParte	thinly	golf	0	517	2
34	23	Male	Right	B	30/11/2016	16:20:56	27	TrialPrimaParte	discern	disc	1	564	1
34	23	Male	Right	B	30/11/2016	16:20:56	28	TrialPrimaParte	unique	unzed	2	434	1
34	23	Male	Right	B	30/11/2016	16:20:56	29	TrialPrimaParte	government	govern	1	435	2
34	23	Male	Right	B	30/11/2016	16:20:56	30	TrialPrimaParte	brisket	brisk	1	762	2
34	23	Male	Right	B	30/11/2016	16:20:56	31	TrialPrimaParte	weekly	rabbi	0	496	1
34	23	Male	Right	B	30/11/2016	16:20:56	32	TrialPrimaParte	signal	quir	2	800	1
34	23	Male	Right	B	30/11/2016	16:20:56	33	TrialPrimaParte	acutely	nymph	0	693	2
34	23	Male	Right	B	30/11/2016	16:20:56	34	TrialPrimaParte	advisory	advock	2	1085	1
34	23	Male	Right	B	30/11/2016	16:20:56	35	TrialPrimaParte	oxygenate	oxygen	1	558	2
34	23	Male	Right	B	30/11/2016	16:20:56	36	TrialPrimaParte	within	earl	0	794	2
34	23	Male	Right	B	30/11/2016	16:20:56	37	TrialPrimaParte	hourly	snip	0	690	2
34	23	Male	Right	B	30/11/2016	16:20:56	38	TrialPrimaParte	content	conly	2	594	1
34	23	Male	Right	B	30/11/2016	16:20:56	39	TrialPrimaParte	classic	clals	2	577	1
34	23	Male	Right	B	30/11/2016	16:20:56	40	TrialPrimaParte	electron	elect	1	538	2
34	23	Male	Right	B	30/11/2016	16:20:56	41	TrialPrimaParte	ninety	scrap	0	571	2
34	23	Male	Right	B	30/11/2016	16:20:56	42	TrialPrimaParte	nincompoops	ninpoo	2	637	1
34	23	Male	Right	B	30/11/2016	16:20:56	43	TrialPrimaParte	courteous	court	1	472	2
34	23	Male	Right	B	30/11/2016	16:20:56	44	TrialPrimaParte	dusty	dusy	2	472	1
34	23	Male	Right	B	30/11/2016	16:20:56	45	TrialPrimaParte	awaken	tood	2	695	1
34	23	Male	Right	B	30/11/2016	16:20:56	46	TrialPrimaParte	analogy	anopy	2	556	1
34	23	Male	Right	B	30/11/2016	16:20:56	47	TrialPrimaParte	jetty	kuty	2	583	1
34	23	Male	Right	B	30/11/2016	16:20:56	48	TrialPrimaParte	fleeting	fleet	1	737	2
34	23	Male	Right	B	30/11/2016	16:20:56	49	TrialPrimaParte	decision	posig	2	567	1
34	23	Male	Right	B	30/11/2016	16:20:56	50	TrialPrimaParte	ambush	amshy	2	627	1
34	23	Male	Right	B	30/11/2016	16:20:56	51	TrialPrimaParte	touchy	fizz	0	1432	1
34	23	Male	Right	B	30/11/2016	16:20:56	52	TrialPrimaParte	passel	turp	2	1322	1
34	23	Male	Right	B	30/11/2016	16:20:56	53	TrialPrimaParte	revolutionise	sivert	2	728	1
34	23	Male	Right	B	30/11/2016	16:20:56	54	TrialPrimaParte	grouse	gruf	2	1124	1
34	23	Male	Right	B	30/11/2016	16:20:56	55	TrialPrimaParte	linkage	flion	2	767	1
34	23	Male	Right	B	30/11/2016	16:20:56	56	TrialPrimaParte	upstart	pumy	2	616	1
34	23	Male	Right	B	30/11/2016	16:20:56	57	TrialPrimaParte	filmy	plus	0	677	2
34	23	Male	Right	B	30/11/2016	16:20:56	58	TrialPrimaParte	active	blood	0	508	2
34	23	Male	Right	B	30/11/2016	16:20:56	59	TrialPrimaParte	snobby	snool	2	558	1
34	23	Male	Right	B	30/11/2016	16:20:56	60	TrialPrimaParte	colonel	colon	1	504	2
34	23	Male	Right	B	30/11/2016	16:20:56	61	TrialPrimaParte	prudish	force	0	575	2
34	23	Male	Right	B	30/11/2016	16:20:56	62	TrialPrimaParte	neighbour	neigh	1	953	2
34	23	Male	Right	B	30/11/2016	16:20:56	63	TrialPrimaParte	religious	sisby	2	650	1
34	23	Male	Right	B	30/11/2016	16:20:56	64	TrialPrimaParte	education	educon	2	628	1
34	23	Male	Right	B	30/11/2016	16:20:56	65	TrialPrimaParte	sudden	verty	2	650	1
34	23	Male	Right	B	30/11/2016	16:20:56	66	TrialPrimaParte	muffin	mufir	2	604	1
34	23	Male	Right	B	30/11/2016	16:20:56	67	TrialPrimaParte	turmoil	furm	2	558	1
34	23	Male	Right	B	30/11/2016	16:20:56	68	TrialPrimaParte	tract	trep	2	433	1
34	23	Male	Right	B	30/11/2016	16:20:56	69	TrialPrimaParte	eruption	erupt	1	622	2
34	23	Male	Right	B	30/11/2016	16:20:56	70	TrialPrimaParte	child	sild	2	450	1
34	23	Male	Right	B	30/11/2016	16:20:56	71	TrialPrimaParte	original	orive	2	550	1
34	23	Male	Right	B	30/11/2016	16:20:56	72	TrialPrimaParte	appendix	append	1	784	2
34	23	Male	Right	B	30/11/2016	16:20:56	73	TrialPrimaParte	phonetic	phone	1	586	2
34	23	Male	Right	B	30/11/2016	16:20:56	74	TrialPrimaParte	farcical	farxy	2	715	1
34	23	Male	Right	B	30/11/2016	16:20:56	75	TrialPrimaParte	tributary	calin	2	632	1
34	23	Male	Right	B	30/11/2016	16:20:56	76	TrialSecondaParte	postage	poth	2	944	1
34	23	Male	Right	B	30/11/2016	16:20:56	77	TrialSecondaParte	inherent	inpock	2	664	1
34	23	Male	Right	B	30/11/2016	16:20:56	78	TrialSecondaParte	greenery	green	1	462	2
34	23	Male	Right	B	30/11/2016	16:20:56	79	TrialSecondaParte	adviser	flick	0	575	2
34	23	Male	Right	B	30/11/2016	16:20:56	80	TrialSecondaParte	power	mord	2	524	1
34	23	Male	Right	B	30/11/2016	16:20:56	81	TrialSecondaParte	piratical	pirent	2	518	1
34	23	Male	Right	B	30/11/2016	16:20:56	82	TrialSecondaParte	golden	free	0	422	2
34	23	Male	Right	B	30/11/2016	16:20:56	83	TrialSecondaParte	thinker	beard	0	514	2
34	23	Male	Right	B	30/11/2016	16:20:56	84	TrialSecondaParte	happy	sigh	0	564	2
34	23	Male	Right	B	30/11/2016	16:20:56	85	TrialSecondaParte	demonstrate	demon	1	700	2
34	23	Male	Right	B	30/11/2016	16:20:56	86	TrialSecondaParte	villain	villa	1	624	2
34	23	Male	Right	B	30/11/2016	16:20:56	87	TrialSecondaParte	misty	stun	0	547	2
34	23	Male	Right	B	30/11/2016	16:20:56	88	TrialSecondaParte	silken	tuft	0	488	1
34	23	Male	Right	B	30/11/2016	16:20:56	89	TrialSecondaParte	utter	uls	2	519	1
34	23	Male	Right	B	30/11/2016	16:20:56	90	TrialSecondaParte	quieten	quiet	1	471	2
34	23	Male	Right	B	30/11/2016	16:20:56	91	TrialSecondaParte	lesser	twit	0	599	2
34	23	Male	Right	B	30/11/2016	16:20:56	92	TrialSecondaParte	facetious	facet	1	1024	2
34	23	Male	Right	B	30/11/2016	16:20:56	93	TrialSecondaParte	stilted	stilt	1	1055	2
34	23	Male	Right	B	30/11/2016	16:20:56	94	TrialSecondaParte	dreamer	dream	1	518	2
34	23	Male	Right	B	30/11/2016	16:20:56	95	TrialSecondaParte	swotting	chuly	2	563	1
34	23	Male	Right	B	30/11/2016	16:20:56	96	TrialSecondaParte	investigate	invest	1	552	2
34	23	Male	Right	B	30/11/2016	16:20:56	97	TrialSecondaParte	plaintiff	plain	1	546	2
34	23	Male	Right	B	30/11/2016	16:20:56	98	TrialSecondaParte	tricky	shove	0	610	2
34	23	Male	Right	B	30/11/2016	16:20:56	99	TrialSecondaParte	folder	heart	0	472	2
34	23	Male	Right	B	30/11/2016	16:20:56	100	TrialSecondaParte	lately	dial	0	590	2
34	23	Male	Right	B	30/11/2016	16:20:56	101	TrialSecondaParte	biscuit	bist	2	585	1
34	23	Male	Right	B	30/11/2016	16:20:56	102	TrialSecondaParte	bubble	glef	2	516	1
34	23	Male	Right	B	30/11/2016	16:20:56	103	TrialSecondaParte	fisher	fims	2	542	1
34	23	Male	Right	B	30/11/2016	16:20:56	104	TrialSecondaParte	thorny	marsh	0	1407	2
34	23	Male	Right	B	30/11/2016	16:20:56	105	TrialSecondaParte	passant	pasks	2	650	1
34	23	Male	Right	B	30/11/2016	16:20:56	106	TrialSecondaParte	ceramic	cerbs	2	594	1
34	23	Male	Right	B	30/11/2016	16:20:56	107	TrialSecondaParte	pottage	posch	2	614	1
34	23	Male	Right	B	30/11/2016	16:20:56	108	TrialSecondaParte	illicit	ilkis	2	518	1
34	23	Male	Right	B	30/11/2016	16:20:56	109	TrialSecondaParte	lethal	lerd	2	510	1
34	23	Male	Right	B	30/11/2016	16:20:56	110	TrialSecondaParte	fabulous	smaply	2	581	1
34	23	Male	Right	B	30/11/2016	16:20:56	111	TrialSecondaParte	others	unit	0	569	2
34	23	Male	Right	B	30/11/2016	16:20:56	112	TrialSecondaParte	beastly	widow	0	813	2
34	23	Male	Right	B	30/11/2016	16:20:56	113	TrialSecondaParte	swivel	quat	2	496	1
34	23	Male	Right	B	30/11/2016	16:20:56	114	TrialSecondaParte	blush	blif	2	492	1
34	23	Male	Right	B	30/11/2016	16:20:56	115	TrialSecondaParte	secretary	secret	1	481	2
34	23	Male	Right	B	30/11/2016	16:20:56	116	TrialSecondaParte	scullery	scull	1	673	1
34	23	Male	Right	B	30/11/2016	16:20:56	117	TrialSecondaParte	amenable	amen	1	712	2
34	23	Male	Right	B	30/11/2016	16:20:56	118	TrialSecondaParte	fibrosis	shuar	2	534	1
34	23	Male	Right	B	30/11/2016	16:20:56	119	TrialSecondaParte	bridal	glut	0	785	1
34	23	Male	Right	B	30/11/2016	16:20:56	120	TrialSecondaParte	buoyant	stir	0	844	2
34	23	Male	Right	B	30/11/2016	16:20:56	121	TrialSecondaParte	dragon	dron	2	655	1
34	23	Male	Right	B	30/11/2016	16:20:56	122	TrialSecondaParte	yearly	acid	0	564	2
34	23	Male	Right	B	30/11/2016	16:20:56	123	TrialSecondaParte	gastric	waser	2	571	1
34	23	Male	Right	B	30/11/2016	16:20:56	124	TrialSecondaParte	prosecution	leler	2	449	1
34	23	Male	Right	B	30/11/2016	16:20:56	125	TrialSecondaParte	question	quest	1	649	2
34	23	Male	Right	B	30/11/2016	16:20:56	126	TrialSecondaParte	mosaic	mip	2	520	1
34	23	Male	Right	B	30/11/2016	16:20:56	127	TrialSecondaParte	gluteal	abtle	2	524	1
34	23	Male	Right	B	30/11/2016	16:20:56	128	TrialSecondaParte	airtight	aith	2	791	1
34	23	Male	Right	B	30/11/2016	16:20:56	129	TrialSecondaParte	armoury	arwor	2	566	1
34	23	Male	Right	B	30/11/2016	16:20:56	130	TrialSecondaParte	surface	surf	1	665	2
34	23	Male	Right	B	30/11/2016	16:20:56	131	TrialSecondaParte	buzzard	buzz	1	620	2
34	23	Male	Right	B	30/11/2016	16:20:56	132	TrialSecondaParte	reaction	react	1	557	2
34	23	Male	Right	B	30/11/2016	16:20:56	133	TrialSecondaParte	fuselage	fuse	1	642	2
34	23	Male	Right	B	30/11/2016	16:20:56	134	TrialSecondaParte	culprit	cuti	2	548	1
34	23	Male	Right	B	30/11/2016	16:20:56	135	TrialSecondaParte	asterix	cret	2	825	1
34	23	Male	Right	B	30/11/2016	16:20:56	136	TrialSecondaParte	agreement	agree	1	520	2
34	23	Male	Right	B	30/11/2016	16:20:56	137	TrialSecondaParte	faceless	facmod	2	538	1
34	23	Male	Right	B	30/11/2016	16:20:56	138	TrialSecondaParte	engage	yurd	2	584	1
34	23	Male	Right	B	30/11/2016	16:20:56	139	TrialSecondaParte	vainly	craft	0	572	2
34	23	Male	Right	B	30/11/2016	16:20:56	140	TrialSecondaParte	cloudless	cloud	1	488	2
34	23	Male	Right	B	30/11/2016	16:20:56	141	TrialSecondaParte	friar	blyr	2	478	1
34	23	Male	Right	B	30/11/2016	16:20:56	142	TrialSecondaParte	manual	mals	2	449	1
34	23	Male	Right	B	30/11/2016	16:20:56	143	TrialSecondaParte	vigilant	vigan	2	645	1
34	23	Male	Right	B	30/11/2016	16:20:56	144	TrialSecondaParte	penguin	phorb	2	551	1
34	23	Male	Right	B	30/11/2016	16:20:56	145	TrialSecondaParte	cranky	crony	2	829	1
34	23	Male	Right	B	30/11/2016	16:20:56	146	TrialSecondaParte	phoenix	blont	2	562	1
34	23	Male	Right	B	30/11/2016	16:20:56	147	TrialSecondaParte	lively	licey	2	616	1
34	23	Male	Right	B	30/11/2016	16:20:56	148	TrialSecondaParte	sovereign	sovign	2	501	1
34	23	Male	Right	B	30/11/2016	16:20:56	149	TrialSecondaParte	lovers	flesh	0	558	2
34	23	Male	Right	B	30/11/2016	16:20:56	150	TrialSecondaParte	angelic	angel	1	542	2
34	23	Male	Right	B	30/11/2016	16:20:56	151	TrialTerzaParte	stampede	stamp	1	866	2
34	23	Male	Right	B	30/11/2016	16:20:56	152	TrialTerzaParte	department	depart	1	815	2
34	23	Male	Right	B	30/11/2016	16:20:56	153	TrialTerzaParte	pummel	syly	2	547	1
34	23	Male	Right	B	30/11/2016	16:20:56	154	TrialTerzaParte	routeing	tomed	2	489	1
34	23	Male	Right	B	30/11/2016	16:20:56	155	TrialTerzaParte	widen	amp	0	888	2
34	23	Male	Right	B	30/11/2016	16:20:56	156	TrialTerzaParte	tackler	lerf	2	525	1
34	23	Male	Right	B	30/11/2016	16:20:56	157	TrialTerzaParte	inventory	invent	1	506	2
34	23	Male	Right	B	30/11/2016	16:20:56	158	TrialTerzaParte	legendary	legend	1	429	2
34	23	Male	Right	B	30/11/2016	16:20:56	159	TrialTerzaParte	stressful	abgaid	2	426	1
34	23	Male	Right	B	30/11/2016	16:20:56	160	TrialTerzaParte	international	intern	1	598	2
34	23	Male	Right	B	30/11/2016	16:20:56	161	TrialTerzaParte	liquidate	liquid	1	450	2
34	23	Male	Right	B	30/11/2016	16:20:56	162	TrialTerzaParte	edible	esigh	2	493	1
34	23	Male	Right	B	30/11/2016	16:20:56	163	TrialTerzaParte	drunkard	drunk	1	479	2
34	23	Male	Right	B	30/11/2016	16:20:56	164	TrialTerzaParte	sleet	slit	2	428	1
34	23	Male	Right	B	30/11/2016	16:20:56	165	TrialTerzaParte	stroke	cligh	2	563	1
34	23	Male	Right	B	30/11/2016	16:20:56	166	TrialTerzaParte	raffle	rafel	2	483	1
34	23	Male	Right	B	30/11/2016	16:20:56	167	TrialTerzaParte	stubborn	stub	1	402	2
34	23	Male	Right	B	30/11/2016	16:20:56	168	TrialTerzaParte	parenthesis	parent	1	426	2
34	23	Male	Right	B	30/11/2016	16:20:56	169	TrialTerzaParte	itinerary	itiner	2	500	1
34	23	Male	Right	B	30/11/2016	16:20:56	170	TrialTerzaParte	candidacy	candid	1	446	2
34	23	Male	Right	B	30/11/2016	16:20:56	171	TrialTerzaParte	plonking	pluny	2	617	1
34	23	Male	Right	B	30/11/2016	16:20:56	172	TrialTerzaParte	gravel	flixy	2	672	1
34	23	Male	Right	B	30/11/2016	16:20:56	173	TrialTerzaParte	criminal	huare	2	506	1
34	23	Male	Right	B	30/11/2016	16:20:56	174	TrialTerzaParte	gently	pub	0	476	2
34	23	Male	Right	B	30/11/2016	16:20:56	175	TrialTerzaParte	scanner	rast	2	476	1
34	23	Male	Right	B	30/11/2016	16:20:56	176	TrialTerzaParte	maternal	malern	2	463	1
34	23	Male	Right	B	30/11/2016	16:20:56	177	TrialTerzaParte	roller	quart	0	485	1
34	23	Male	Right	B	30/11/2016	16:20:56	178	TrialTerzaParte	inhibitory	inhibit	1	602	2
34	23	Male	Right	B	30/11/2016	16:20:56	179	TrialTerzaParte	cousin	coul	2	557	1
34	23	Male	Right	B	30/11/2016	16:20:56	180	TrialTerzaParte	infantry	infant	1	458	2
34	23	Male	Right	B	30/11/2016	16:20:56	181	TrialTerzaParte	scrooge	plich	2	493	1
34	23	Male	Right	B	30/11/2016	16:20:56	182	TrialTerzaParte	hatchery	fighy	2	558	1
34	23	Male	Right	B	30/11/2016	16:20:56	183	TrialTerzaParte	fixture	strul	2	562	1
34	23	Male	Right	B	30/11/2016	16:20:56	184	TrialTerzaParte	kingdom	adopt	0	590	2
34	23	Male	Right	B	30/11/2016	16:20:56	185	TrialTerzaParte	feudal	arch	0	659	2
34	23	Male	Right	B	30/11/2016	16:20:56	186	TrialTerzaParte	dietary	diet	1	544	2
34	23	Male	Right	B	30/11/2016	16:20:56	187	TrialTerzaParte	brutal	helm	0	620	2
34	23	Male	Right	B	30/11/2016	16:20:56	188	TrialTerzaParte	heroic	soft	0	542	2
34	23	Male	Right	B	30/11/2016	16:20:56	189	TrialTerzaParte	crush	bemp	2	503	1
34	23	Male	Right	B	30/11/2016	16:20:56	190	TrialTerzaParte	fatal	fids	2	518	1
34	23	Male	Right	B	30/11/2016	16:20:56	191	TrialTerzaParte	griffin	spoff	2	706	1
34	23	Male	Right	B	30/11/2016	16:20:56	192	TrialTerzaParte	trashy	rell	2	556	1
34	23	Male	Right	B	30/11/2016	16:20:56	193	TrialTerzaParte	basilisk	basil	1	1048	2
34	23	Male	Right	B	30/11/2016	16:20:56	194	TrialTerzaParte	acreage	acre	1	1265	2
34	23	Male	Right	B	30/11/2016	16:20:56	195	TrialTerzaParte	firmly	heave	0	751	2
34	23	Male	Right	B	30/11/2016	16:20:56	196	TrialTerzaParte	repertory	repty	2	505	1
34	23	Male	Right	B	30/11/2016	16:20:56	197	TrialTerzaParte	brothel	broth	1	797	2
34	23	Male	Right	B	30/11/2016	16:20:56	198	TrialTerzaParte	gaiety	harse	2	1010	1
34	23	Male	Right	B	30/11/2016	16:20:56	199	TrialTerzaParte	damsel	dalp	2	583	1
34	23	Male	Right	B	30/11/2016	16:20:56	200	TrialTerzaParte	thicket	thick	1	585	2
34	23	Male	Right	B	30/11/2016	16:20:56	201	TrialTerzaParte	winger	pluck	0	588	2
34	23	Male	Right	B	30/11/2016	16:20:56	202	TrialTerzaParte	renewable	renew	1	521	2
34	23	Male	Right	B	30/11/2016	16:20:56	203	TrialTerzaParte	smelly	thuly	2	540	1
34	23	Male	Right	B	30/11/2016	16:20:56	204	TrialTerzaParte	audition	audit	1	590	2
34	23	Male	Right	B	30/11/2016	16:20:56	205	TrialTerzaParte	arsenal	arse	1	660	2
34	23	Male	Right	B	30/11/2016	16:20:56	206	TrialTerzaParte	opposition	nunfy	2	501	1
34	23	Male	Right	B	30/11/2016	16:20:56	207	TrialTerzaParte	rebound	cous	2	514	1
34	23	Male	Right	B	30/11/2016	16:20:56	208	TrialTerzaParte	plastic	spaxe	2	632	1
34	23	Male	Right	B	30/11/2016	16:20:56	209	TrialTerzaParte	cuffs	glad	0	607	2
34	23	Male	Right	B	30/11/2016	16:20:56	210	TrialTerzaParte	fanatic	fanty	2	788	1
34	23	Male	Right	B	30/11/2016	16:20:56	211	TrialTerzaParte	teacher	teach	1	646	2
34	23	Male	Right	B	30/11/2016	16:20:56	212	TrialTerzaParte	answer	anwe	2	589	1
34	23	Male	Right	B	30/11/2016	16:20:56	213	TrialTerzaParte	extract	extra	1	506	2
34	23	Male	Right	B	30/11/2016	16:20:56	214	TrialTerzaParte	safely	brand	0	569	2
34	23	Male	Right	B	30/11/2016	16:20:56	215	TrialTerzaParte	traffic	trepy	2	506	1
34	23	Male	Right	B	30/11/2016	16:20:56	216	TrialTerzaParte	tripper	mourn	0	684	2
34	23	Male	Right	B	30/11/2016	16:20:56	217	TrialTerzaParte	sensuous	secly	2	529	1
34	23	Male	Right	B	30/11/2016	16:20:56	218	TrialTerzaParte	glossary	gloss	1	731	2
34	23	Male	Right	B	30/11/2016	16:20:56	219	TrialTerzaParte	cryptic	crypt	1	842	2
34	23	Male	Right	B	30/11/2016	16:20:56	220	TrialTerzaParte	cheaply	twin	0	577	2
34	23	Male	Right	B	30/11/2016	16:20:56	221	TrialTerzaParte	foetal	fongs	2	550	1
34	23	Male	Right	B	30/11/2016	16:20:56	222	TrialTerzaParte	alarming	alarm	1	450	2
34	23	Male	Right	B	30/11/2016	16:20:56	223	TrialTerzaParte	dealer	poet	0	570	2
34	23	Male	Right	B	30/11/2016	16:20:56	224	TrialTerzaParte	manly	weir	0	631	1
34	23	Male	Right	B	30/11/2016	16:20:56	225	TrialTerzaParte	graphic	blamp	2	649	1
34	23	Male	Right	B	30/11/2016	16:20:56	226	TrialQuartaParte	plumage	plum	1	815	2
34	23	Male	Right	B	30/11/2016	16:20:56	227	TrialQuartaParte	chatter	trump	0	565	2
34	23	Male	Right	B	30/11/2016	16:20:56	228	TrialQuartaParte	bourbon	boun	2	610	1
34	23	Male	Right	B	30/11/2016	16:20:56	229	TrialQuartaParte	rancour	brits	2	618	1
34	23	Male	Right	B	30/11/2016	16:20:56	230	TrialQuartaParte	frosty	sign	0	537	2
34	23	Male	Right	B	30/11/2016	16:20:56	231	TrialQuartaParte	command	comma	1	624	2
34	23	Male	Right	B	30/11/2016	16:20:56	232	TrialQuartaParte	veteran	venic	2	612	1
34	23	Male	Right	B	30/11/2016	16:20:56	233	TrialQuartaParte	desert	dert	2	631	1
34	23	Male	Right	B	30/11/2016	16:20:56	234	TrialQuartaParte	clanger	spant	2	542	1
34	23	Male	Right	B	30/11/2016	16:20:56	235	TrialQuartaParte	talker	claf	2	491	1
34	23	Male	Right	B	30/11/2016	16:20:56	236	TrialQuartaParte	snobbery	snotty	2	600	2
34	23	Male	Right	B	30/11/2016	16:20:56	237	TrialQuartaParte	lessen	bomb	0	582	2
34	23	Male	Right	B	30/11/2016	16:20:56	238	TrialQuartaParte	prayer	butt	0	569	2
34	23	Male	Right	B	30/11/2016	16:20:56	239	TrialQuartaParte	twelfth	smug	0	702	2
34	23	Male	Right	B	30/11/2016	16:20:56	240	TrialQuartaParte	watery	cream	0	488	2
34	23	Male	Right	B	30/11/2016	16:20:56	241	TrialQuartaParte	unspoilt	nalky	2	555	1
34	23	Male	Right	B	30/11/2016	16:20:56	242	TrialQuartaParte	muffler	coast	0	542	2
34	23	Male	Right	B	30/11/2016	16:20:56	243	TrialQuartaParte	rational	ration	1	467	2
34	23	Male	Right	B	30/11/2016	16:20:56	244	TrialQuartaParte	floater	float	1	555	2
34	23	Male	Right	B	30/11/2016	16:20:56	245	TrialQuartaParte	legacy	lecy	2	547	1
34	23	Male	Right	B	30/11/2016	16:20:56	246	TrialQuartaParte	yardage	yage	2	760	1
34	23	Male	Right	B	30/11/2016	16:20:56	247	TrialQuartaParte	highlight	gylpo	2	952	1
34	23	Male	Right	B	30/11/2016	16:20:56	248	TrialQuartaParte	oddity	squaw	0	710	1
34	23	Male	Right	B	30/11/2016	16:20:56	249	TrialQuartaParte	abstract	fewtu	2	910	1
34	23	Male	Right	B	30/11/2016	16:20:56	250	TrialQuartaParte	geisha	crove	2	808	1
34	23	Male	Right	B	30/11/2016	16:20:56	251	TrialQuartaParte	halogen	haly	2	628	1
34	23	Male	Right	B	30/11/2016	16:20:56	252	TrialQuartaParte	syphilis	ruar	2	522	1
34	23	Male	Right	B	30/11/2016	16:20:56	253	TrialQuartaParte	supplant	plosy	2	617	1
34	23	Male	Right	B	30/11/2016	16:20:56	254	TrialQuartaParte	twisty	jerk	0	579	2
34	23	Male	Right	B	30/11/2016	16:20:56	255	TrialQuartaParte	ranger	view	0	559	2
34	23	Male	Right	B	30/11/2016	16:20:56	256	TrialQuartaParte	miller	gloom	0	605	2
34	23	Male	Right	B	30/11/2016	16:20:56	257	TrialQuartaParte	northern	north	1	489	2
34	23	Male	Right	B	30/11/2016	16:20:56	258	TrialQuartaParte	pottery	crook	0	781	2
34	23	Male	Right	B	30/11/2016	16:20:56	259	TrialQuartaParte	country	count	1	904	2
34	23	Male	Right	B	30/11/2016	16:20:56	260	TrialQuartaParte	daring	dalig	2	491	1
34	23	Male	Right	B	30/11/2016	16:20:56	261	TrialQuartaParte	abstain	abter	2	538	1
34	23	Male	Right	B	30/11/2016	16:20:56	262	TrialQuartaParte	crikey	brize	2	653	1
34	23	Male	Right	B	30/11/2016	16:20:56	263	TrialQuartaParte	summit	sutty	2	538	1
34	23	Male	Right	B	30/11/2016	16:20:56	264	TrialQuartaParte	textile	text	1	507	2
34	23	Male	Right	B	30/11/2016	16:20:56	265	TrialQuartaParte	absence	agsel	2	561	1
34	23	Male	Right	B	30/11/2016	16:20:56	266	TrialQuartaParte	baronet	baron	1	524	2
34	23	Male	Right	B	30/11/2016	16:20:56	267	TrialQuartaParte	harden	filth	0	604	2
34	23	Male	Right	B	30/11/2016	16:20:56	268	TrialQuartaParte	haulier	halfe	2	683	1
34	23	Male	Right	B	30/11/2016	16:20:56	269	TrialQuartaParte	editor	plan	0	541	2
34	23	Male	Right	B	30/11/2016	16:20:56	270	TrialQuartaParte	kinetic	kinse	2	465	1
34	23	Male	Right	B	30/11/2016	16:20:56	271	TrialQuartaParte	maximum	suyte	2	496	1
34	23	Male	Right	B	30/11/2016	16:20:56	272	TrialQuartaParte	monastery	fagor	2	609	1
34	23	Male	Right	B	30/11/2016	16:20:56	273	TrialQuartaParte	ribbon	ribed	2	482	1
34	23	Male	Right	B	30/11/2016	16:20:56	274	TrialQuartaParte	category	cagre	2	504	1
34	23	Male	Right	B	30/11/2016	16:20:56	275	TrialQuartaParte	employer	employ	1	610	2
34	23	Male	Right	B	30/11/2016	16:20:56	276	TrialQuartaParte	angler	treat	0	558	2
34	23	Male	Right	B	30/11/2016	16:20:56	277	TrialQuartaParte	downs	risk	0	556	2
34	23	Male	Right	B	30/11/2016	16:20:56	278	TrialQuartaParte	splinter	splint	1	975	1
34	23	Male	Right	B	30/11/2016	16:20:56	279	TrialQuartaParte	genetic	genth	2	677	1
34	23	Male	Right	B	30/11/2016	16:20:56	280	TrialQuartaParte	portal	balp	2	523	1
34	23	Male	Right	B	30/11/2016	16:20:56	281	TrialQuartaParte	leftist	bulb	0	604	2
34	23	Male	Right	B	30/11/2016	16:20:56	282	TrialQuartaParte	vengeful	cherb	2	556	1
34	23	Male	Right	B	30/11/2016	16:20:56	283	TrialQuartaParte	tamponade	ruffy	2	700	1
34	23	Male	Right	B	30/11/2016	16:20:56	284	TrialQuartaParte	wishful	toast	0	540	2
34	23	Male	Right	B	30/11/2016	16:20:56	285	TrialQuartaParte	formal	guilt	0	565	2
34	23	Male	Right	B	30/11/2016	16:20:56	286	TrialQuartaParte	dysentery	ranin	2	557	1
34	23	Male	Right	B	30/11/2016	16:20:56	287	TrialQuartaParte	gifted	pulp	0	584	2
34	23	Male	Right	B	30/11/2016	16:20:56	288	TrialQuartaParte	neutron	whese	2	530	1
34	23	Male	Right	B	30/11/2016	16:20:56	289	TrialQuartaParte	naughty	troll	0	525	2
34	23	Male	Right	B	30/11/2016	16:20:56	290	TrialQuartaParte	critical	critic	1	642	2
34	23	Male	Right	B	30/11/2016	16:20:56	291	TrialQuartaParte	sandy	iron	0	505	2
34	23	Male	Right	B	30/11/2016	16:20:56	292	TrialQuartaParte	ethereal	ether	1	608	2
34	23	Male	Right	B	30/11/2016	16:20:56	293	TrialQuartaParte	vertical	verks	2	780	1
34	23	Male	Right	B	30/11/2016	16:20:56	294	TrialQuartaParte	scalding	scald	1	811	2
34	23	Male	Right	B	30/11/2016	16:20:56	295	TrialQuartaParte	olympic	olick	2	522	1
34	23	Male	Right	B	30/11/2016	16:20:56	296	TrialQuartaParte	deficit	dety	2	588	1
34	23	Male	Right	B	30/11/2016	16:20:56	297	TrialQuartaParte	skylight	skigh	2	623	1
34	23	Male	Right	B	30/11/2016	16:20:56	298	TrialQuartaParte	spindly	tact	0	683	2
34	23	Male	Right	B	30/11/2016	16:20:56	299	TrialQuartaParte	leaflet	organ	0	568	2
34	23	Male	Right	B	30/11/2016	16:20:56	300	TrialQuartaParte	socialiser	flepity	2	617	1
