Subject	Age	Gender	Handedness	Rotation	Data	OraStart	TrialCount	TrialType	Prime	Target	Relatedness	rt	Resp
50	24	Female	Left	B	14/09/2017	14:41:35	1	Prova	wellness	well	4	1160	2
50	24	Female	Left	B	14/09/2017	14:41:35	2	Prova	homeless	home	4	973	2
50	24	Female	Left	B	14/09/2017	14:41:35	3	Prova	tricky	tricker	4	1913	1
50	24	Female	Left	B	14/09/2017	14:41:35	4	Prova	character	char	4	2001	-1
50	24	Female	Left	B	14/09/2017	14:41:35	5	Prova	translater	pulter	4	1873	2
50	24	Female	Left	B	14/09/2017	14:41:35	6	Prova2	escape	exat	4	1120	1
50	24	Female	Left	B	14/09/2017	14:41:35	7	Prova2	investigator	invest	4	763	2
50	24	Female	Left	B	14/09/2017	14:41:35	8	Prova2	examiner	exam	4	689	2
50	24	Female	Left	B	14/09/2017	14:41:35	9	Prova2	topic	top	4	474	2
50	24	Female	Left	B	14/09/2017	14:41:35	1	Warmup	unpack	pack	5	787	2
50	24	Female	Left	B	14/09/2017	14:41:35	2	Warmup	tartare	tariff	5	1031	2
50	24	Female	Left	B	14/09/2017	14:41:35	3	Warmup	cowrie	sturms	5	1195	1
50	24	Female	Left	B	14/09/2017	14:41:35	4	Warmup	cortex	newbie	5	1264	2
50	24	Female	Left	B	14/09/2017	14:41:35	5	Warmup	pullma	pulm	5	943	1
50	24	Female	Left	B	14/09/2017	14:41:35	1	TrialPrimaParte	fabulous	smaply	2	1457	1
50	24	Female	Left	B	14/09/2017	14:41:35	2	TrialPrimaParte	swivel	quat	2	1277	2
50	24	Female	Left	B	14/09/2017	14:41:35	3	TrialPrimaParte	jetty	kuty	2	1178	1
50	24	Female	Left	B	14/09/2017	14:41:35	4	TrialPrimaParte	finely	chill	0	621	2
50	24	Female	Left	B	14/09/2017	14:41:35	5	TrialPrimaParte	difference	difrol	2	1138	1
50	24	Female	Left	B	14/09/2017	14:41:35	6	TrialPrimaParte	airtight	aith	2	761	1
50	24	Female	Left	B	14/09/2017	14:41:35	7	TrialPrimaParte	decision	posig	2	535	2
50	24	Female	Left	B	14/09/2017	14:41:35	8	TrialPrimaParte	plonking	pluny	2	867	2
50	24	Female	Left	B	14/09/2017	14:41:35	9	TrialPrimaParte	dreamer	dream	1	559	2
50	24	Female	Left	B	14/09/2017	14:41:35	10	TrialPrimaParte	utter	uls	2	700	1
50	24	Female	Left	B	14/09/2017	14:41:35	11	TrialPrimaParte	others	unit	0	692	2
50	24	Female	Left	B	14/09/2017	14:41:35	12	TrialPrimaParte	factual	board	0	658	2
50	24	Female	Left	B	14/09/2017	14:41:35	13	TrialPrimaParte	awaken	tood	2	1085	2
50	24	Female	Left	B	14/09/2017	14:41:35	14	TrialPrimaParte	plaintiff	plain	1	611	2
50	24	Female	Left	B	14/09/2017	14:41:35	15	TrialPrimaParte	happy	sigh	0	840	2
50	24	Female	Left	B	14/09/2017	14:41:35	16	TrialPrimaParte	nincompoops	ninpoo	2	944	1
50	24	Female	Left	B	14/09/2017	14:41:35	17	TrialPrimaParte	firmly	heave	0	701	2
50	24	Female	Left	B	14/09/2017	14:41:35	18	TrialPrimaParte	acreage	acre	1	730	2
50	24	Female	Left	B	14/09/2017	14:41:35	19	TrialPrimaParte	halogen	haly	2	904	1
50	24	Female	Left	B	14/09/2017	14:41:35	20	TrialPrimaParte	criminal	huare	2	1055	1
50	24	Female	Left	B	14/09/2017	14:41:35	21	TrialPrimaParte	naughty	troll	0	733	2
50	24	Female	Left	B	14/09/2017	14:41:35	22	TrialPrimaParte	legendary	legend	1	509	2
50	24	Female	Left	B	14/09/2017	14:41:35	23	TrialPrimaParte	reaction	react	1	487	2
50	24	Female	Left	B	14/09/2017	14:41:35	24	TrialPrimaParte	ribbon	ribed	2	649	1
50	24	Female	Left	B	14/09/2017	14:41:35	25	TrialPrimaParte	kingdom	adopt	0	677	2
50	24	Female	Left	B	14/09/2017	14:41:35	26	TrialPrimaParte	buoyant	stir	0	640	2
50	24	Female	Left	B	14/09/2017	14:41:35	27	TrialPrimaParte	hydration	povic	2	1003	1
50	24	Female	Left	B	14/09/2017	14:41:35	28	TrialPrimaParte	category	cagre	2	920	1
50	24	Female	Left	B	14/09/2017	14:41:35	29	TrialPrimaParte	turmoil	furm	2	1093	1
50	24	Female	Left	B	14/09/2017	14:41:35	30	TrialPrimaParte	portal	balp	2	1152	1
50	24	Female	Left	B	14/09/2017	14:41:35	31	TrialPrimaParte	wishful	toast	0	699	2
50	24	Female	Left	B	14/09/2017	14:41:35	32	TrialPrimaParte	manual	mals	2	757	2
50	24	Female	Left	B	14/09/2017	14:41:35	33	TrialPrimaParte	passel	turp	2	1027	2
50	24	Female	Left	B	14/09/2017	14:41:35	34	TrialPrimaParte	stressful	abgaid	2	733	1
50	24	Female	Left	B	14/09/2017	14:41:35	35	TrialPrimaParte	answer	anwe	2	899	1
50	24	Female	Left	B	14/09/2017	14:41:35	36	TrialPrimaParte	cookery	train	0	610	2
50	24	Female	Left	B	14/09/2017	14:41:35	37	TrialPrimaParte	plumage	plum	1	823	2
50	24	Female	Left	B	14/09/2017	14:41:35	38	TrialPrimaParte	advisory	advock	2	743	1
50	24	Female	Left	B	14/09/2017	14:41:35	39	TrialPrimaParte	muffin	mufir	2	917	1
50	24	Female	Left	B	14/09/2017	14:41:35	40	TrialPrimaParte	harden	filth	0	1112	2
50	24	Female	Left	B	14/09/2017	14:41:35	41	TrialPrimaParte	hourly	snip	0	849	1
50	24	Female	Left	B	14/09/2017	14:41:35	42	TrialPrimaParte	repertory	repty	2	977	1
50	24	Female	Left	B	14/09/2017	14:41:35	43	TrialPrimaParte	chatter	trump	0	646	2
50	24	Female	Left	B	14/09/2017	14:41:35	44	TrialPrimaParte	spindly	tact	0	1270	2
50	24	Female	Left	B	14/09/2017	14:41:35	45	TrialPrimaParte	rancour	brits	2	928	2
50	24	Female	Left	B	14/09/2017	14:41:35	46	TrialPrimaParte	agreement	agree	1	612	2
50	24	Female	Left	B	14/09/2017	14:41:35	47	TrialPrimaParte	itinerary	itiner	2	1151	2
50	24	Female	Left	B	14/09/2017	14:41:35	48	TrialPrimaParte	adviser	flick	0	833	2
50	24	Female	Left	B	14/09/2017	14:41:35	49	TrialPrimaParte	appendix	append	1	1038	1
50	24	Female	Left	B	14/09/2017	14:41:35	50	TrialPrimaParte	trashy	rell	2	872	1
50	24	Female	Left	B	14/09/2017	14:41:35	51	TrialPrimaParte	gastric	waser	2	934	1
50	24	Female	Left	B	14/09/2017	14:41:35	52	TrialPrimaParte	stroke	cligh	2	1228	2
50	24	Female	Left	B	14/09/2017	14:41:35	53	TrialPrimaParte	angler	treat	0	631	2
50	24	Female	Left	B	14/09/2017	14:41:35	54	TrialPrimaParte	brothel	broth	1	1036	2
50	24	Female	Left	B	14/09/2017	14:41:35	55	TrialPrimaParte	twelfth	smug	0	870	2
50	24	Female	Left	B	14/09/2017	14:41:35	56	TrialPrimaParte	legacy	lecy	2	730	1
50	24	Female	Left	B	14/09/2017	14:41:35	57	TrialPrimaParte	keeper	gala	0	727	2
50	24	Female	Left	B	14/09/2017	14:41:35	58	TrialPrimaParte	ambush	amshy	2	884	1
50	24	Female	Left	B	14/09/2017	14:41:35	59	TrialPrimaParte	vainly	craft	0	744	2
50	24	Female	Left	B	14/09/2017	14:41:35	60	TrialPrimaParte	surgeon	surge	1	683	2
50	24	Female	Left	B	14/09/2017	14:41:35	61	TrialPrimaParte	liquidate	liquid	1	587	2
50	24	Female	Left	B	14/09/2017	14:41:35	62	TrialPrimaParte	abstain	abter	2	713	1
50	24	Female	Left	B	14/09/2017	14:41:35	63	TrialPrimaParte	reliable	blidar	2	801	1
50	24	Female	Left	B	14/09/2017	14:41:35	64	TrialPrimaParte	snobbery	snotty	2	761	1
50	24	Female	Left	B	14/09/2017	14:41:35	65	TrialPrimaParte	vengeful	cherb	2	814	1
50	24	Female	Left	B	14/09/2017	14:41:35	66	TrialPrimaParte	daring	dalig	2	749	1
50	24	Female	Left	B	14/09/2017	14:41:35	67	TrialPrimaParte	winger	pluck	0	475	2
50	24	Female	Left	B	14/09/2017	14:41:35	68	TrialPrimaParte	snobby	snool	2	1194	1
50	24	Female	Left	B	14/09/2017	14:41:35	69	TrialPrimaParte	question	quest	1	427	2
50	24	Female	Left	B	14/09/2017	14:41:35	70	TrialPrimaParte	country	count	1	652	2
50	24	Female	Left	B	14/09/2017	14:41:35	71	TrialPrimaParte	cryptic	crypt	1	1186	2
50	24	Female	Left	B	14/09/2017	14:41:35	72	TrialPrimaParte	angelic	angel	1	597	2
50	24	Female	Left	B	14/09/2017	14:41:35	73	TrialPrimaParte	vertical	verks	2	727	1
50	24	Female	Left	B	14/09/2017	14:41:35	74	TrialPrimaParte	buzzard	buzz	1	769	2
50	24	Female	Left	B	14/09/2017	14:41:35	75	TrialPrimaParte	against	again	1	528	2
50	24	Female	Left	B	14/09/2017	14:41:35	76	TrialSecondaParte	infantry	infant	1	951	2
50	24	Female	Left	B	14/09/2017	14:41:35	77	TrialSecondaParte	facetious	facet	1	999	2
50	24	Female	Left	B	14/09/2017	14:41:35	78	TrialSecondaParte	classic	clals	2	805	1
50	24	Female	Left	B	14/09/2017	14:41:35	79	TrialSecondaParte	fanatic	fanty	2	801	2
50	24	Female	Left	B	14/09/2017	14:41:35	80	TrialSecondaParte	cloudless	cloud	1	634	2
50	24	Female	Left	B	14/09/2017	14:41:35	81	TrialSecondaParte	fibrosis	shuar	2	552	1
50	24	Female	Left	B	14/09/2017	14:41:35	82	TrialSecondaParte	prosecution	leler	2	802	1
50	24	Female	Left	B	14/09/2017	14:41:35	83	TrialSecondaParte	routeing	tomed	2	809	1
50	24	Female	Left	B	14/09/2017	14:41:35	84	TrialSecondaParte	piratical	pirent	2	1319	2
50	24	Female	Left	B	14/09/2017	14:41:35	85	TrialSecondaParte	lovers	flesh	0	750	2
50	24	Female	Left	B	14/09/2017	14:41:35	86	TrialSecondaParte	alarming	alarm	1	687	2
50	24	Female	Left	B	14/09/2017	14:41:35	87	TrialSecondaParte	stubborn	stub	1	962	1
50	24	Female	Left	B	14/09/2017	14:41:35	88	TrialSecondaParte	traffic	trepy	2	932	1
50	24	Female	Left	B	14/09/2017	14:41:35	89	TrialSecondaParte	neutron	whese	2	945	2
50	24	Female	Left	B	14/09/2017	14:41:35	90	TrialSecondaParte	ethereal	ether	1	1129	2
50	24	Female	Left	B	14/09/2017	14:41:35	91	TrialSecondaParte	farcical	farxy	2	608	1
50	24	Female	Left	B	14/09/2017	14:41:35	92	TrialSecondaParte	within	earl	0	802	2
50	24	Female	Left	B	14/09/2017	14:41:35	93	TrialSecondaParte	grouse	gruf	2	1140	2
50	24	Female	Left	B	14/09/2017	14:41:35	94	TrialSecondaParte	sensuous	secly	2	652	1
50	24	Female	Left	B	14/09/2017	14:41:35	95	TrialSecondaParte	opposition	nunfy	2	648	1
50	24	Female	Left	B	14/09/2017	14:41:35	96	TrialSecondaParte	faceless	facmod	2	974	1
50	24	Female	Left	B	14/09/2017	14:41:35	97	TrialSecondaParte	gifted	pulp	0	638	2
50	24	Female	Left	B	14/09/2017	14:41:35	98	TrialSecondaParte	analogy	anopy	2	1093	1
50	24	Female	Left	B	14/09/2017	14:41:35	99	TrialSecondaParte	blush	blif	2	799	1
50	24	Female	Left	B	14/09/2017	14:41:35	100	TrialSecondaParte	kinetic	kinse	2	859	1
50	24	Female	Left	B	14/09/2017	14:41:35	101	TrialSecondaParte	basilisk	basil	1	1123	1
50	24	Female	Left	B	14/09/2017	14:41:35	102	TrialSecondaParte	gravel	flixy	2	730	2
50	24	Female	Left	B	14/09/2017	14:41:35	103	TrialSecondaParte	phonetic	phone	1	497	2
50	24	Female	Left	B	14/09/2017	14:41:35	104	TrialSecondaParte	crummy	meye	2	1124	1
50	24	Female	Left	B	14/09/2017	14:41:35	105	TrialSecondaParte	investigate	invest	1	613	2
50	24	Female	Left	B	14/09/2017	14:41:35	106	TrialSecondaParte	electron	elect	1	729	2
50	24	Female	Left	B	14/09/2017	14:41:35	107	TrialSecondaParte	cousin	coul	2	601	2
50	24	Female	Left	B	14/09/2017	14:41:35	108	TrialSecondaParte	paternal	siter	2	1398	1
50	24	Female	Left	B	14/09/2017	14:41:35	109	TrialSecondaParte	audition	audit	1	1176	2
50	24	Female	Left	B	14/09/2017	14:41:35	110	TrialSecondaParte	roller	quart	0	1114	2
50	24	Female	Left	B	14/09/2017	14:41:35	111	TrialSecondaParte	feudal	arch	0	867	2
50	24	Female	Left	B	14/09/2017	14:41:35	112	TrialSecondaParte	surface	surf	1	705	2
50	24	Female	Left	B	14/09/2017	14:41:35	113	TrialSecondaParte	thinly	golf	0	553	2
50	24	Female	Left	B	14/09/2017	14:41:35	114	TrialSecondaParte	greenery	green	1	679	2
50	24	Female	Left	B	14/09/2017	14:41:35	115	TrialSecondaParte	tamponade	ruffy	2	1006	2
50	24	Female	Left	B	14/09/2017	14:41:35	116	TrialSecondaParte	tributary	calin	2	1230	1
50	24	Female	Left	B	14/09/2017	14:41:35	117	TrialSecondaParte	downs	risk	0	761	2
50	24	Female	Left	B	14/09/2017	14:41:35	118	TrialSecondaParte	folder	heart	0	629	2
50	24	Female	Left	B	14/09/2017	14:41:35	119	TrialSecondaParte	floater	float	1	694	2
50	24	Female	Left	B	14/09/2017	14:41:35	120	TrialSecondaParte	asterix	cret	2	783	1
50	24	Female	Left	B	14/09/2017	14:41:35	121	TrialSecondaParte	gaiety	harse	2	1182	2
50	24	Female	Left	B	14/09/2017	14:41:35	122	TrialSecondaParte	scrooge	plich	2	716	1
50	24	Female	Left	B	14/09/2017	14:41:35	123	TrialSecondaParte	desert	dert	2	950	1
50	24	Female	Left	B	14/09/2017	14:41:35	124	TrialSecondaParte	brutal	helm	0	911	2
50	24	Female	Left	B	14/09/2017	14:41:35	125	TrialSecondaParte	clanger	spant	2	813	1
50	24	Female	Left	B	14/09/2017	14:41:35	126	TrialSecondaParte	pummel	syly	2	830	1
50	24	Female	Left	B	14/09/2017	14:41:35	127	TrialSecondaParte	tricky	shove	0	1897	2
50	24	Female	Left	B	14/09/2017	14:41:35	128	TrialSecondaParte	friar	blyr	2	730	1
50	24	Female	Left	B	14/09/2017	14:41:35	129	TrialSecondaParte	culprit	cuti	2	988	1
50	24	Female	Left	B	14/09/2017	14:41:35	130	TrialSecondaParte	illicit	ilkis	2	1351	2
50	24	Female	Left	B	14/09/2017	14:41:35	131	TrialSecondaParte	biscuit	bist	2	1479	1
50	24	Female	Left	B	14/09/2017	14:41:35	132	TrialSecondaParte	fixture	strul	2	1189	1
50	24	Female	Left	B	14/09/2017	14:41:35	133	TrialSecondaParte	merrier	merks	2	1287	1
50	24	Female	Left	B	14/09/2017	14:41:35	134	TrialSecondaParte	fruitless	fruit	1	657	2
50	24	Female	Left	B	14/09/2017	14:41:35	135	TrialSecondaParte	watery	cream	0	581	2
50	24	Female	Left	B	14/09/2017	14:41:35	136	TrialSecondaParte	drunkard	drunk	1	602	2
50	24	Female	Left	B	14/09/2017	14:41:35	137	TrialSecondaParte	textile	text	1	512	2
50	24	Female	Left	B	14/09/2017	14:41:35	138	TrialSecondaParte	fleeting	fleet	1	672	2
50	24	Female	Left	B	14/09/2017	14:41:35	139	TrialSecondaParte	splinter	splint	1	790	2
50	24	Female	Left	B	14/09/2017	14:41:35	140	TrialSecondaParte	ranger	view	0	697	2
50	24	Female	Left	B	14/09/2017	14:41:35	141	TrialSecondaParte	fatal	fids	2	794	2
50	24	Female	Left	B	14/09/2017	14:41:35	142	TrialSecondaParte	geisha	crove	2	937	2
50	24	Female	Left	B	14/09/2017	14:41:35	143	TrialSecondaParte	heroic	soft	0	724	2
50	24	Female	Left	B	14/09/2017	14:41:35	144	TrialSecondaParte	eruption	erupt	1	978	2
50	24	Female	Left	B	14/09/2017	14:41:35	145	TrialSecondaParte	pottery	crook	0	1078	1
50	24	Female	Left	B	14/09/2017	14:41:35	146	TrialSecondaParte	oxygenate	oxygen	1	775	2
50	24	Female	Left	B	14/09/2017	14:41:35	147	TrialSecondaParte	sovereign	sovign	2	859	1
50	24	Female	Left	B	14/09/2017	14:41:35	148	TrialSecondaParte	fuselage	fuse	1	1404	1
50	24	Female	Left	B	14/09/2017	14:41:35	149	TrialSecondaParte	rational	ration	1	1403	2
50	24	Female	Left	B	14/09/2017	14:41:35	150	TrialSecondaParte	candidacy	candid	1	915	2
50	24	Female	Left	B	14/09/2017	14:41:35	151	TrialTerzaParte	golden	free	0	634	2
50	24	Female	Left	B	14/09/2017	14:41:35	152	TrialTerzaParte	lethal	lerd	2	804	1
50	24	Female	Left	B	14/09/2017	14:41:35	153	TrialTerzaParte	employer	employ	1	621	2
50	24	Female	Left	B	14/09/2017	14:41:35	154	TrialTerzaParte	grueling	gruel	1	1137	2
50	24	Female	Left	B	14/09/2017	14:41:35	155	TrialTerzaParte	tripper	mourn	0	636	1
50	24	Female	Left	B	14/09/2017	14:41:35	156	TrialTerzaParte	maximum	suyte	2	1509	1
50	24	Female	Left	B	14/09/2017	14:41:35	157	TrialTerzaParte	really	numb	0	1365	1
50	24	Female	Left	B	14/09/2017	14:41:35	158	TrialTerzaParte	dragon	dron	2	1425	1
50	24	Female	Left	B	14/09/2017	14:41:35	159	TrialTerzaParte	active	blood	0	579	2
50	24	Female	Left	B	14/09/2017	14:41:35	160	TrialTerzaParte	stampede	stamp	1	683	2
50	24	Female	Left	B	14/09/2017	14:41:35	161	TrialTerzaParte	silken	tuft	0	686	1
50	24	Female	Left	B	14/09/2017	14:41:35	162	TrialTerzaParte	smelly	thuly	2	876	1
50	24	Female	Left	B	14/09/2017	14:41:35	163	TrialTerzaParte	teacher	teach	1	783	2
50	24	Female	Left	B	14/09/2017	14:41:35	164	TrialTerzaParte	parenthesis	parent	1	710	2
50	24	Female	Left	B	14/09/2017	14:41:35	165	TrialTerzaParte	deficit	dety	2	801	1
50	24	Female	Left	B	14/09/2017	14:41:35	166	TrialTerzaParte	power	mord	2	1103	2
50	24	Female	Left	B	14/09/2017	14:41:35	167	TrialTerzaParte	passant	pasks	2	1117	1
50	24	Female	Left	B	14/09/2017	14:41:35	168	TrialTerzaParte	socialiser	flepity	2	1216	1
50	24	Female	Left	B	14/09/2017	14:41:35	169	TrialTerzaParte	muffler	coast	0	640	2
50	24	Female	Left	B	14/09/2017	14:41:35	170	TrialTerzaParte	edible	esigh	2	1419	1
50	24	Female	Left	B	14/09/2017	14:41:35	171	TrialTerzaParte	oddity	squaw	0	1386	1
50	24	Female	Left	B	14/09/2017	14:41:35	172	TrialTerzaParte	arsenal	arse	1	1360	2
50	24	Female	Left	B	14/09/2017	14:41:35	173	TrialTerzaParte	extract	extra	1	646	2
50	24	Female	Left	B	14/09/2017	14:41:35	174	TrialTerzaParte	summit	sutty	2	777	1
50	24	Female	Left	B	14/09/2017	14:41:35	175	TrialTerzaParte	filmy	plus	0	771	2
50	24	Female	Left	B	14/09/2017	14:41:35	176	TrialTerzaParte	genetic	genth	2	1362	2
50	24	Female	Left	B	14/09/2017	14:41:35	177	TrialTerzaParte	talker	claf	2	1249	2
50	24	Female	Left	B	14/09/2017	14:41:35	178	TrialTerzaParte	gently	pub	0	669	2
50	24	Female	Left	B	14/09/2017	14:41:35	179	TrialTerzaParte	swotting	chuly	2	702	1
50	24	Female	Left	B	14/09/2017	14:41:35	180	TrialTerzaParte	postage	poth	2	867	1
50	24	Female	Left	B	14/09/2017	14:41:35	181	TrialTerzaParte	frosty	sign	0	680	2
50	24	Female	Left	B	14/09/2017	14:41:35	182	TrialTerzaParte	miller	gloom	0	655	2
50	24	Female	Left	B	14/09/2017	14:41:35	183	TrialTerzaParte	ninety	scrap	0	997	2
50	24	Female	Left	B	14/09/2017	14:41:35	184	TrialTerzaParte	manly	weir	0	1212	2
50	24	Female	Left	B	14/09/2017	14:41:35	185	TrialTerzaParte	leftist	bulb	0	641	1
50	24	Female	Left	B	14/09/2017	14:41:35	186	TrialTerzaParte	inhibitory	inhibit	1	794	2
50	24	Female	Left	B	14/09/2017	14:41:35	187	TrialTerzaParte	supplant	plosy	2	765	1
50	24	Female	Left	B	14/09/2017	14:41:35	188	TrialTerzaParte	glossary	gloss	1	671	2
50	24	Female	Left	B	14/09/2017	14:41:35	189	TrialTerzaParte	thicket	thick	1	881	2
50	24	Female	Left	B	14/09/2017	14:41:35	190	TrialTerzaParte	rebound	cous	2	1303	2
50	24	Female	Left	B	14/09/2017	14:41:35	191	TrialTerzaParte	abstract	fewtu	2	669	1
50	24	Female	Left	B	14/09/2017	14:41:35	192	TrialTerzaParte	highlight	gylpo	2	687	1
50	24	Female	Left	B	14/09/2017	14:41:35	193	TrialTerzaParte	inventory	invent	1	638	2
50	24	Female	Left	B	14/09/2017	14:41:35	194	TrialTerzaParte	amenable	amen	1	580	2
50	24	Female	Left	B	14/09/2017	14:41:35	195	TrialTerzaParte	cranky	crony	2	931	2
50	24	Female	Left	B	14/09/2017	14:41:35	196	TrialTerzaParte	lesser	twit	0	825	2
50	24	Female	Left	B	14/09/2017	14:41:35	197	TrialTerzaParte	critical	critic	1	686	2
50	24	Female	Left	B	14/09/2017	14:41:35	198	TrialTerzaParte	discern	disc	1	772	2
50	24	Female	Left	B	14/09/2017	14:41:35	199	TrialTerzaParte	upstart	pumy	2	932	1
50	24	Female	Left	B	14/09/2017	14:41:35	200	TrialTerzaParte	tract	trep	2	687	1
50	24	Female	Left	B	14/09/2017	14:41:35	201	TrialTerzaParte	weekly	rabbi	0	709	1
50	24	Female	Left	B	14/09/2017	14:41:35	202	TrialTerzaParte	northern	north	1	886	2
50	24	Female	Left	B	14/09/2017	14:41:35	203	TrialTerzaParte	stilted	stilt	1	840	1
50	24	Female	Left	B	14/09/2017	14:41:35	204	TrialTerzaParte	thorny	marsh	0	926	2
50	24	Female	Left	B	14/09/2017	14:41:35	205	TrialTerzaParte	dusty	dusy	2	848	1
50	24	Female	Left	B	14/09/2017	14:41:35	206	TrialTerzaParte	unspoilt	nalky	2	758	1
50	24	Female	Left	B	14/09/2017	14:41:35	207	TrialTerzaParte	dysentery	ranin	2	1553	1
50	24	Female	Left	B	14/09/2017	14:41:35	208	TrialTerzaParte	crikey	brize	2	1000	2
50	24	Female	Left	B	14/09/2017	14:41:35	209	TrialTerzaParte	sudden	verty	2	605	1
50	24	Female	Left	B	14/09/2017	14:41:35	210	TrialTerzaParte	absence	agsel	2	803	1
50	24	Female	Left	B	14/09/2017	14:41:35	211	TrialTerzaParte	religious	sisby	2	745	1
50	24	Female	Left	B	14/09/2017	14:41:35	212	TrialTerzaParte	pottage	posch	2	683	1
50	24	Female	Left	B	14/09/2017	14:41:35	213	TrialTerzaParte	killer	lalf	2	1039	2
50	24	Female	Left	B	14/09/2017	14:41:35	214	TrialTerzaParte	bourbon	boun	2	1269	1
50	24	Female	Left	B	14/09/2017	14:41:35	215	TrialTerzaParte	acutely	nymph	0	1143	2
50	24	Female	Left	B	14/09/2017	14:41:35	216	TrialTerzaParte	unique	unzed	2	1582	1
50	24	Female	Left	B	14/09/2017	14:41:35	217	TrialTerzaParte	international	intern	1	694	2
50	24	Female	Left	B	14/09/2017	14:41:35	218	TrialTerzaParte	prayer	butt	0	735	2
50	24	Female	Left	B	14/09/2017	14:41:35	219	TrialTerzaParte	linkage	flion	2	806	1
50	24	Female	Left	B	14/09/2017	14:41:35	220	TrialTerzaParte	education	educon	2	920	1
50	24	Female	Left	B	14/09/2017	14:41:35	221	TrialTerzaParte	misty	stun	0	803	2
50	24	Female	Left	B	14/09/2017	14:41:35	222	TrialTerzaParte	artistry	artist	1	582	2
50	24	Female	Left	B	14/09/2017	14:41:35	223	TrialTerzaParte	mosaic	mip	2	721	1
50	24	Female	Left	B	14/09/2017	14:41:35	224	TrialTerzaParte	child	sild	2	990	1
50	24	Female	Left	B	14/09/2017	14:41:35	225	TrialTerzaParte	revolutionise	sivert	2	859	1
50	24	Female	Left	B	14/09/2017	14:41:35	226	TrialQuartaParte	vigilant	vigan	2	845	2
50	24	Female	Left	B	14/09/2017	14:41:35	227	TrialQuartaParte	veteran	venic	2	810	1
50	24	Female	Left	B	14/09/2017	14:41:35	228	TrialQuartaParte	quieten	quiet	1	729	2
50	24	Female	Left	B	14/09/2017	14:41:35	229	TrialQuartaParte	demonstrate	demon	1	941	2
50	24	Female	Left	B	14/09/2017	14:41:35	230	TrialQuartaParte	lately	dial	0	721	2
50	24	Female	Left	B	14/09/2017	14:41:35	231	TrialQuartaParte	brisket	brisk	1	718	2
50	24	Female	Left	B	14/09/2017	14:41:35	232	TrialQuartaParte	prudish	force	0	703	2
50	24	Female	Left	B	14/09/2017	14:41:35	233	TrialQuartaParte	inherent	inpock	2	758	1
50	24	Female	Left	B	14/09/2017	14:41:35	234	TrialQuartaParte	hatchery	fighy	2	833	1
50	24	Female	Left	B	14/09/2017	14:41:35	235	TrialQuartaParte	command	comma	1	750	2
50	24	Female	Left	B	14/09/2017	14:41:35	236	TrialQuartaParte	olympic	olick	2	729	1
50	24	Female	Left	B	14/09/2017	14:41:35	237	TrialQuartaParte	syphilis	ruar	2	689	1
50	24	Female	Left	B	14/09/2017	14:41:35	238	TrialQuartaParte	scullery	scull	1	566	1
50	24	Female	Left	B	14/09/2017	14:41:35	239	TrialQuartaParte	graphic	blamp	2	616	2
50	24	Female	Left	B	14/09/2017	14:41:35	240	TrialQuartaParte	yearly	acid	0	634	2
50	24	Female	Left	B	14/09/2017	14:41:35	241	TrialQuartaParte	message	rosty	2	741	2
50	24	Female	Left	B	14/09/2017	14:41:35	242	TrialQuartaParte	bridal	glut	0	622	2
50	24	Female	Left	B	14/09/2017	14:41:35	243	TrialQuartaParte	cuffs	glad	0	644	2
50	24	Female	Left	B	14/09/2017	14:41:35	244	TrialQuartaParte	moulder	moure	2	1019	2
50	24	Female	Left	B	14/09/2017	14:41:35	245	TrialQuartaParte	yardage	yage	2	414	1
50	24	Female	Left	B	14/09/2017	14:41:35	246	TrialQuartaParte	maternal	malern	2	667	1
50	24	Female	Left	B	14/09/2017	14:41:35	247	TrialQuartaParte	baronet	baron	1	710	2
50	24	Female	Left	B	14/09/2017	14:41:35	248	TrialQuartaParte	colonel	colon	1	740	2
50	24	Female	Left	B	14/09/2017	14:41:35	249	TrialQuartaParte	scalding	scald	1	596	1
50	24	Female	Left	B	14/09/2017	14:41:35	250	TrialQuartaParte	centimetres	censar	2	807	1
50	24	Female	Left	B	14/09/2017	14:41:35	251	TrialQuartaParte	bubble	glef	2	888	1
50	24	Female	Left	B	14/09/2017	14:41:35	252	TrialQuartaParte	lively	licey	2	753	1
50	24	Female	Left	B	14/09/2017	14:41:35	253	TrialQuartaParte	fisher	fims	2	722	1
50	24	Female	Left	B	14/09/2017	14:41:35	254	TrialQuartaParte	cheaply	twin	0	594	2
50	24	Female	Left	B	14/09/2017	14:41:35	255	TrialQuartaParte	coyness	whisk	0	693	2
50	24	Female	Left	B	14/09/2017	14:41:35	256	TrialQuartaParte	polite	tind	2	663	2
50	24	Female	Left	B	14/09/2017	14:41:35	257	TrialQuartaParte	leaflet	organ	0	686	2
50	24	Female	Left	B	14/09/2017	14:41:35	258	TrialQuartaParte	damsel	dalp	2	613	1
50	24	Female	Left	B	14/09/2017	14:41:35	259	TrialQuartaParte	fishy	putt	0	709	1
50	24	Female	Left	B	14/09/2017	14:41:35	260	TrialQuartaParte	ceramic	cerbs	2	846	1
50	24	Female	Left	B	14/09/2017	14:41:35	261	TrialQuartaParte	lessen	bomb	0	644	2
50	24	Female	Left	B	14/09/2017	14:41:35	262	TrialQuartaParte	armoury	arwor	2	762	1
50	24	Female	Left	B	14/09/2017	14:41:35	263	TrialQuartaParte	dietary	diet	1	560	2
50	24	Female	Left	B	14/09/2017	14:41:35	264	TrialQuartaParte	courteous	court	1	596	2
50	24	Female	Left	B	14/09/2017	14:41:35	265	TrialQuartaParte	safely	brand	0	593	2
50	24	Female	Left	B	14/09/2017	14:41:35	266	TrialQuartaParte	griffin	spoff	2	641	1
50	24	Female	Left	B	14/09/2017	14:41:35	267	TrialQuartaParte	foetal	fongs	2	668	1
50	24	Female	Left	B	14/09/2017	14:41:35	268	TrialQuartaParte	signal	quir	2	831	1
50	24	Female	Left	B	14/09/2017	14:41:35	269	TrialQuartaParte	widen	amp	0	746	1
50	24	Female	Left	B	14/09/2017	14:41:35	270	TrialQuartaParte	vivacious	vicis	2	780	2
50	24	Female	Left	B	14/09/2017	14:41:35	271	TrialQuartaParte	touchy	fizz	0	847	1
50	24	Female	Left	B	14/09/2017	14:41:35	272	TrialQuartaParte	haulier	halfe	2	784	1
50	24	Female	Left	B	14/09/2017	14:41:35	273	TrialQuartaParte	penguin	phorb	2	945	1
50	24	Female	Left	B	14/09/2017	14:41:35	274	TrialQuartaParte	crush	bemp	2	770	1
50	24	Female	Left	B	14/09/2017	14:41:35	275	TrialQuartaParte	itchy	shun	0	781	1
50	24	Female	Left	B	14/09/2017	14:41:35	276	TrialQuartaParte	editor	plan	0	553	2
50	24	Female	Left	B	14/09/2017	14:41:35	277	TrialQuartaParte	formal	guilt	0	633	2
50	24	Female	Left	B	14/09/2017	14:41:35	278	TrialQuartaParte	neighbour	neigh	1	760	1
50	24	Female	Left	B	14/09/2017	14:41:35	279	TrialQuartaParte	dealer	poet	0	731	2
50	24	Female	Left	B	14/09/2017	14:41:35	280	TrialQuartaParte	raffle	rafel	2	1039	1
50	24	Female	Left	B	14/09/2017	14:41:35	281	TrialQuartaParte	beastly	widow	0	1087	2
50	24	Female	Left	B	14/09/2017	14:41:35	282	TrialQuartaParte	sandy	iron	0	648	2
50	24	Female	Left	B	14/09/2017	14:41:35	283	TrialQuartaParte	plastic	spaxe	2	875	1
50	24	Female	Left	B	14/09/2017	14:41:35	284	TrialQuartaParte	monastery	fagor	2	682	1
50	24	Female	Left	B	14/09/2017	14:41:35	285	TrialQuartaParte	thinker	beard	0	783	2
50	24	Female	Left	B	14/09/2017	14:41:35	286	TrialQuartaParte	renewable	renew	1	1266	2
50	24	Female	Left	B	14/09/2017	14:41:35	287	TrialQuartaParte	government	govern	1	694	2
50	24	Female	Left	B	14/09/2017	14:41:35	288	TrialQuartaParte	department	depart	1	623	2
50	24	Female	Left	B	14/09/2017	14:41:35	289	TrialQuartaParte	content	conly	2	722	1
50	24	Female	Left	B	14/09/2017	14:41:35	290	TrialQuartaParte	villain	villa	1	743	2
50	24	Female	Left	B	14/09/2017	14:41:35	291	TrialQuartaParte	gluteal	abtle	2	882	1
50	24	Female	Left	B	14/09/2017	14:41:35	292	TrialQuartaParte	secretary	secret	1	1093	2
50	24	Female	Left	B	14/09/2017	14:41:35	293	TrialQuartaParte	tackler	lerf	2	1015	1
50	24	Female	Left	B	14/09/2017	14:41:35	294	TrialQuartaParte	scanner	rast	2	876	2
50	24	Female	Left	B	14/09/2017	14:41:35	295	TrialQuartaParte	twisty	jerk	0	662	2
50	24	Female	Left	B	14/09/2017	14:41:35	296	TrialQuartaParte	original	orive	2	724	1
50	24	Female	Left	B	14/09/2017	14:41:35	297	TrialQuartaParte	engage	yurd	2	779	1
50	24	Female	Left	B	14/09/2017	14:41:35	298	TrialQuartaParte	sleet	slit	2	863	2
50	24	Female	Left	B	14/09/2017	14:41:35	299	TrialQuartaParte	skylight	skigh	2	917	1
50	24	Female	Left	B	14/09/2017	14:41:35	300	TrialQuartaParte	phoenix	blont	2	870	1
