Subject	Age	Gender	Handedness	Rotation	Data	OraStart	TrialCount	TrialType	Prime	Target	Relatedness	rt	Resp
9	26	Female	Right	A	10/11/2016	10:26:54	1	Prova	wellness	well	4	26302	2
9	26	Female	Right	A	10/11/2016	10:26:54	2	Prova	homeless	home	4	880	2
9	26	Female	Right	A	10/11/2016	10:26:54	3	Prova	tricky	tricker	4	691	2
9	26	Female	Right	A	10/11/2016	10:26:54	4	Prova	character	char	4	362	1
9	26	Female	Right	A	10/11/2016	10:26:54	5	Prova	translater	pulter	4	700	1
9	26	Female	Right	A	10/11/2016	10:26:54	6	Prova2	escape	exat	4	652	1
9	26	Female	Right	A	10/11/2016	10:26:54	7	Prova2	investigator	invest	4	702	2
9	26	Female	Right	A	10/11/2016	10:26:54	8	Prova2	examiner	exam	4	491	2
9	26	Female	Right	A	10/11/2016	10:26:54	9	Prova2	topic	top	4	472	2
9	26	Female	Right	A	10/11/2016	10:26:54	1	Warmup	unpack	pack	5	475	2
9	26	Female	Right	A	10/11/2016	10:26:54	2	Warmup	tartare	tariff	5	670	1
9	26	Female	Right	A	10/11/2016	10:26:54	3	Warmup	cowrie	sturms	5	674	1
9	26	Female	Right	A	10/11/2016	10:26:54	4	Warmup	cortex	newbie	5	569	2
9	26	Female	Right	A	10/11/2016	10:26:54	5	Warmup	pullma	pulm	5	649	1
9	26	Female	Right	A	10/11/2016	10:26:54	1	TrialPrimaParte	twitch	twit	1	971	1
9	26	Female	Right	A	10/11/2016	10:26:54	2	TrialPrimaParte	crikey	brize	2	692	1
9	26	Female	Right	A	10/11/2016	10:26:54	3	TrialPrimaParte	advisory	advock	2	616	1
9	26	Female	Right	A	10/11/2016	10:26:54	4	TrialPrimaParte	fixture	strul	2	754	1
9	26	Female	Right	A	10/11/2016	10:26:54	5	TrialPrimaParte	calmness	artist	0	458	2
9	26	Female	Right	A	10/11/2016	10:26:54	6	TrialPrimaParte	sleet	slit	2	573	2
9	26	Female	Right	A	10/11/2016	10:26:54	7	TrialPrimaParte	gluteal	abtle	2	801	1
9	26	Female	Right	A	10/11/2016	10:26:54	8	TrialPrimaParte	sight	sigh	1	797	2
9	26	Female	Right	A	10/11/2016	10:26:54	9	TrialPrimaParte	absurdity	plain	0	510	2
9	26	Female	Right	A	10/11/2016	10:26:54	10	TrialPrimaParte	fibrosis	shuar	2	633	1
9	26	Female	Right	A	10/11/2016	10:26:54	11	TrialPrimaParte	soften	soft	1	539	2
9	26	Female	Right	A	10/11/2016	10:26:54	12	TrialPrimaParte	jerkin	jerk	1	459	2
9	26	Female	Right	A	10/11/2016	10:26:54	13	TrialPrimaParte	utter	uls	2	553	1
9	26	Female	Right	A	10/11/2016	10:26:54	14	TrialPrimaParte	armoury	arwor	2	712	1
9	26	Female	Right	A	10/11/2016	10:26:54	15	TrialPrimaParte	rumbling	ether	0	886	1
9	26	Female	Right	A	10/11/2016	10:26:54	16	TrialPrimaParte	paternal	siter	2	1063	1
9	26	Female	Right	A	10/11/2016	10:26:54	17	TrialPrimaParte	centimetres	censar	2	750	1
9	26	Female	Right	A	10/11/2016	10:26:54	18	TrialPrimaParte	trashy	rell	2	664	1
9	26	Female	Right	A	10/11/2016	10:26:54	19	TrialPrimaParte	foetal	fongs	2	621	1
9	26	Female	Right	A	10/11/2016	10:26:54	20	TrialPrimaParte	pummel	syly	2	698	1
9	26	Female	Right	A	10/11/2016	10:26:54	21	TrialPrimaParte	mourner	mourn	1	551	2
9	26	Female	Right	A	10/11/2016	10:26:54	22	TrialPrimaParte	repertory	repty	2	727	1
9	26	Female	Right	A	10/11/2016	10:26:54	23	TrialPrimaParte	scanner	rast	2	965	1
9	26	Female	Right	A	10/11/2016	10:26:54	24	TrialPrimaParte	dweller	crypt	0	695	2
9	26	Female	Right	A	10/11/2016	10:26:54	25	TrialPrimaParte	heaven	heave	1	943	2
9	26	Female	Right	A	10/11/2016	10:26:54	26	TrialPrimaParte	scrape	scrap	1	646	2
9	26	Female	Right	A	10/11/2016	10:26:54	27	TrialPrimaParte	fizzle	fizz	1	805	2
9	26	Female	Right	A	10/11/2016	10:26:54	28	TrialPrimaParte	organic	organ	1	566	2
9	26	Female	Right	A	10/11/2016	10:26:54	29	TrialPrimaParte	fatal	fids	2	877	1
9	26	Female	Right	A	10/11/2016	10:26:54	30	TrialPrimaParte	situation	govern	0	618	2
9	26	Female	Right	A	10/11/2016	10:26:54	31	TrialPrimaParte	public	pub	1	606	2
9	26	Female	Right	A	10/11/2016	10:26:54	32	TrialPrimaParte	bloody	blood	1	506	2
9	26	Female	Right	A	10/11/2016	10:26:54	33	TrialPrimaParte	sensuous	secly	2	677	1
9	26	Female	Right	A	10/11/2016	10:26:54	34	TrialPrimaParte	routeing	tomed	2	1092	1
9	26	Female	Right	A	10/11/2016	10:26:54	35	TrialPrimaParte	lectureship	parent	0	594	2
9	26	Female	Right	A	10/11/2016	10:26:54	36	TrialPrimaParte	original	orive	2	705	1
9	26	Female	Right	A	10/11/2016	10:26:54	37	TrialPrimaParte	crafty	craft	1	568	2
9	26	Female	Right	A	10/11/2016	10:26:54	38	TrialPrimaParte	farcical	farxy	2	537	1
9	26	Female	Right	A	10/11/2016	10:26:54	39	TrialPrimaParte	moisture	stub	0	837	2
9	26	Female	Right	A	10/11/2016	10:26:54	40	TrialPrimaParte	squawk	squaw	1	1230	2
9	26	Female	Right	A	10/11/2016	10:26:54	41	TrialPrimaParte	reliable	blidar	2	755	1
9	26	Female	Right	A	10/11/2016	10:26:54	42	TrialPrimaParte	gastric	waser	2	622	1
9	26	Female	Right	A	10/11/2016	10:26:54	43	TrialPrimaParte	highlight	gylpo	2	665	1
9	26	Female	Right	A	10/11/2016	10:26:54	44	TrialPrimaParte	rebound	cous	2	840	1
9	26	Female	Right	A	10/11/2016	10:26:54	45	TrialPrimaParte	physical	react	0	522	2
9	26	Female	Right	A	10/11/2016	10:26:54	46	TrialPrimaParte	suburban	elect	0	605	2
9	26	Female	Right	A	10/11/2016	10:26:54	47	TrialPrimaParte	obviously	secret	0	979	2
9	26	Female	Right	A	10/11/2016	10:26:54	48	TrialPrimaParte	manual	mals	2	645	1
9	26	Female	Right	A	10/11/2016	10:26:54	49	TrialPrimaParte	amateurish	inhibit	0	551	2
9	26	Female	Right	A	10/11/2016	10:26:54	50	TrialPrimaParte	scruffy	thick	0	554	2
9	26	Female	Right	A	10/11/2016	10:26:54	51	TrialPrimaParte	portal	balp	2	626	1
9	26	Female	Right	A	10/11/2016	10:26:54	52	TrialPrimaParte	bubble	glef	2	732	1
9	26	Female	Right	A	10/11/2016	10:26:54	53	TrialPrimaParte	early	earl	1	684	2
9	26	Female	Right	A	10/11/2016	10:26:54	54	TrialPrimaParte	gluten	glut	1	963	1
9	26	Female	Right	A	10/11/2016	10:26:54	55	TrialPrimaParte	gaseous	stilt	0	826	2
9	26	Female	Right	A	10/11/2016	10:26:54	56	TrialPrimaParte	alcoholic	fruit	0	583	2
9	26	Female	Right	A	10/11/2016	10:26:54	57	TrialPrimaParte	traffic	trepy	2	776	1
9	26	Female	Right	A	10/11/2016	10:26:54	58	TrialPrimaParte	prosecution	leler	2	725	1
9	26	Female	Right	A	10/11/2016	10:26:54	59	TrialPrimaParte	olympic	olick	2	685	1
9	26	Female	Right	A	10/11/2016	10:26:54	60	TrialPrimaParte	epileptic	candid	0	815	2
9	26	Female	Right	A	10/11/2016	10:26:54	61	TrialPrimaParte	button	butt	1	946	2
9	26	Female	Right	A	10/11/2016	10:26:54	62	TrialPrimaParte	daring	dalig	2	667	1
9	26	Female	Right	A	10/11/2016	10:26:54	63	TrialPrimaParte	rabbit	rabbi	1	971	2
9	26	Female	Right	A	10/11/2016	10:26:54	64	TrialPrimaParte	culprit	cuti	2	655	1
9	26	Female	Right	A	10/11/2016	10:26:54	65	TrialPrimaParte	brandy	brand	1	555	2
9	26	Female	Right	A	10/11/2016	10:26:54	66	TrialPrimaParte	steadily	ration	0	614	2
9	26	Female	Right	A	10/11/2016	10:26:54	67	TrialPrimaParte	mosaic	mip	2	630	1
9	26	Female	Right	A	10/11/2016	10:26:54	68	TrialPrimaParte	tract	trep	2	832	1
9	26	Female	Right	A	10/11/2016	10:26:54	69	TrialPrimaParte	signet	sign	1	528	2
9	26	Female	Right	A	10/11/2016	10:26:54	70	TrialPrimaParte	ample	amp	1	934	1
9	26	Female	Right	A	10/11/2016	10:26:54	71	TrialPrimaParte	enactment	cloud	0	533	2
9	26	Female	Right	A	10/11/2016	10:26:54	72	TrialPrimaParte	service	count	0	608	2
9	26	Female	Right	A	10/11/2016	10:26:54	73	TrialPrimaParte	faceless	facmod	2	596	1
9	26	Female	Right	A	10/11/2016	10:26:54	74	TrialPrimaParte	gravel	flixy	2	1095	2
9	26	Female	Right	A	10/11/2016	10:26:54	75	TrialPrimaParte	vicarage	erupt	0	629	2
9	26	Female	Right	A	10/11/2016	10:26:54	76	TrialSecondaParte	fleshy	flesh	1	523	2
9	26	Female	Right	A	10/11/2016	10:26:54	77	TrialSecondaParte	putty	putt	1	630	2
9	26	Female	Right	A	10/11/2016	10:26:54	78	TrialSecondaParte	trumpet	trump	1	472	2
9	26	Female	Right	A	10/11/2016	10:26:54	79	TrialSecondaParte	lively	licey	2	837	2
9	26	Female	Right	A	10/11/2016	10:26:54	80	TrialSecondaParte	tamponade	ruffy	2	945	2
9	26	Female	Right	A	10/11/2016	10:26:54	81	TrialSecondaParte	timidly	arse	0	904	2
9	26	Female	Right	A	10/11/2016	10:26:54	82	TrialSecondaParte	idealism	splint	0	1301	2
9	26	Female	Right	A	10/11/2016	10:26:54	83	TrialSecondaParte	novelty	surge	0	601	2
9	26	Female	Right	A	10/11/2016	10:26:54	84	TrialSecondaParte	jauntily	scald	0	850	2
9	26	Female	Right	A	10/11/2016	10:26:54	85	TrialSecondaParte	neutron	whese	2	752	1
9	26	Female	Right	A	10/11/2016	10:26:54	86	TrialSecondaParte	clanger	spant	2	790	1
9	26	Female	Right	A	10/11/2016	10:26:54	87	TrialSecondaParte	swivel	quat	2	1039	1
9	26	Female	Right	A	10/11/2016	10:26:54	88	TrialSecondaParte	religious	sisby	2	1113	2
9	26	Female	Right	A	10/11/2016	10:26:54	89	TrialSecondaParte	crummy	meye	2	621	1
9	26	Female	Right	A	10/11/2016	10:26:54	90	TrialSecondaParte	selfless	audit	0	856	1
9	26	Female	Right	A	10/11/2016	10:26:54	91	TrialSecondaParte	broiler	plum	0	660	2
9	26	Female	Right	A	10/11/2016	10:26:54	92	TrialSecondaParte	griffin	spoff	2	652	1
9	26	Female	Right	A	10/11/2016	10:26:54	93	TrialSecondaParte	dusty	dusy	2	723	1
9	26	Female	Right	A	10/11/2016	10:26:54	94	TrialSecondaParte	perhaps	again	0	1025	2
9	26	Female	Right	A	10/11/2016	10:26:54	95	TrialSecondaParte	extremism	liquid	0	624	2
9	26	Female	Right	A	10/11/2016	10:26:54	96	TrialSecondaParte	graphic	blamp	2	600	1
9	26	Female	Right	A	10/11/2016	10:26:54	97	TrialSecondaParte	vigilant	vigan	2	714	1
9	26	Female	Right	A	10/11/2016	10:26:54	98	TrialSecondaParte	upstart	pumy	2	591	1
9	26	Female	Right	A	10/11/2016	10:26:54	99	TrialSecondaParte	cranky	crony	2	629	1
9	26	Female	Right	A	10/11/2016	10:26:54	100	TrialSecondaParte	distantly	facet	0	578	1
9	26	Female	Right	A	10/11/2016	10:26:54	101	TrialSecondaParte	damsel	dalp	2	684	1
9	26	Female	Right	A	10/11/2016	10:26:54	102	TrialSecondaParte	shunt	shun	1	501	1
9	26	Female	Right	A	10/11/2016	10:26:54	103	TrialSecondaParte	stroke	cligh	2	647	1
9	26	Female	Right	A	10/11/2016	10:26:54	104	TrialSecondaParte	viewer	view	1	603	2
9	26	Female	Right	A	10/11/2016	10:26:54	105	TrialSecondaParte	hatchery	fighy	2	670	1
9	26	Female	Right	A	10/11/2016	10:26:54	106	TrialSecondaParte	crush	bemp	2	575	1
9	26	Female	Right	A	10/11/2016	10:26:54	107	TrialSecondaParte	monastery	fagor	2	606	1
9	26	Female	Right	A	10/11/2016	10:26:54	108	TrialSecondaParte	blush	blif	2	611	1
9	26	Female	Right	A	10/11/2016	10:26:54	109	TrialSecondaParte	grouse	gruf	2	1379	1
9	26	Female	Right	A	10/11/2016	10:26:54	110	TrialSecondaParte	abstain	abter	2	581	1
9	26	Female	Right	A	10/11/2016	10:26:54	111	TrialSecondaParte	criminal	huare	2	557	1
9	26	Female	Right	A	10/11/2016	10:26:54	112	TrialSecondaParte	nymphet	nymph	1	790	2
9	26	Female	Right	A	10/11/2016	10:26:54	113	TrialSecondaParte	turmoil	furm	2	914	1
9	26	Female	Right	A	10/11/2016	10:26:54	114	TrialSecondaParte	believer	append	0	769	2
9	26	Female	Right	A	10/11/2016	10:26:54	115	TrialSecondaParte	boarder	board	1	692	2
9	26	Female	Right	A	10/11/2016	10:26:54	116	TrialSecondaParte	developer	court	0	805	2
9	26	Female	Right	A	10/11/2016	10:26:54	117	TrialSecondaParte	starter	disc	0	683	1
9	26	Female	Right	A	10/11/2016	10:26:54	118	TrialSecondaParte	coaster	coast	1	581	2
9	26	Female	Right	A	10/11/2016	10:26:54	119	TrialSecondaParte	friar	blyr	2	627	1
9	26	Female	Right	A	10/11/2016	10:26:54	120	TrialSecondaParte	inherent	inpock	2	614	1
9	26	Female	Right	A	10/11/2016	10:26:54	121	TrialSecondaParte	power	mord	2	579	1
9	26	Female	Right	A	10/11/2016	10:26:54	122	TrialSecondaParte	simplify	fleet	0	726	2
9	26	Female	Right	A	10/11/2016	10:26:54	123	TrialSecondaParte	archer	arch	1	668	2
9	26	Female	Right	A	10/11/2016	10:26:54	124	TrialSecondaParte	friendly	north	0	810	2
9	26	Female	Right	A	10/11/2016	10:26:54	125	TrialSecondaParte	forceps	force	1	593	2
9	26	Female	Right	A	10/11/2016	10:26:54	126	TrialSecondaParte	halogen	haly	2	915	1
9	26	Female	Right	A	10/11/2016	10:26:54	127	TrialSecondaParte	treaty	treat	1	591	2
9	26	Female	Right	A	10/11/2016	10:26:54	128	TrialSecondaParte	absence	agsel	2	808	1
9	26	Female	Right	A	10/11/2016	10:26:54	129	TrialSecondaParte	toaster	toast	1	560	2
9	26	Female	Right	A	10/11/2016	10:26:54	130	TrialSecondaParte	smelly	thuly	2	987	1
9	26	Female	Right	A	10/11/2016	10:26:54	131	TrialSecondaParte	poetry	poet	1	552	2
9	26	Female	Right	A	10/11/2016	10:26:54	132	TrialSecondaParte	watcher	angel	0	621	2
9	26	Female	Right	A	10/11/2016	10:26:54	133	TrialSecondaParte	justify	extra	0	662	2
9	26	Female	Right	A	10/11/2016	10:26:54	134	TrialSecondaParte	twinkle	twin	1	521	2
9	26	Female	Right	A	10/11/2016	10:26:54	135	TrialSecondaParte	filthy	filth	1	684	2
9	26	Female	Right	A	10/11/2016	10:26:54	136	TrialSecondaParte	helmet	helm	1	699	2
9	26	Female	Right	A	10/11/2016	10:26:54	137	TrialSecondaParte	piratical	pirent	2	1285	1
9	26	Female	Right	A	10/11/2016	10:26:54	138	TrialSecondaParte	education	educon	2	868	1
9	26	Female	Right	A	10/11/2016	10:26:54	139	TrialSecondaParte	dysentery	ranin	2	882	1
9	26	Female	Right	A	10/11/2016	10:26:54	140	TrialSecondaParte	tackler	lerf	2	604	1
9	26	Female	Right	A	10/11/2016	10:26:54	141	TrialSecondaParte	snobbery	snotty	2	618	2
9	26	Female	Right	A	10/11/2016	10:26:54	142	TrialSecondaParte	message	rosty	2	696	1
9	26	Female	Right	A	10/11/2016	10:26:54	143	TrialSecondaParte	cousin	coul	2	578	1
9	26	Female	Right	A	10/11/2016	10:26:54	144	TrialSecondaParte	medical	surf	0	489	2
9	26	Female	Right	A	10/11/2016	10:26:54	145	TrialSecondaParte	hydration	povic	2	512	1
9	26	Female	Right	A	10/11/2016	10:26:54	146	TrialSecondaParte	jetty	kuty	2	518	1
9	26	Female	Right	A	10/11/2016	10:26:54	147	TrialSecondaParte	revolutionary	intern	0	546	2
9	26	Female	Right	A	10/11/2016	10:26:54	148	TrialSecondaParte	plucky	pluck	1	484	2
9	26	Female	Right	A	10/11/2016	10:26:54	149	TrialSecondaParte	trolley	troll	1	949	2
9	26	Female	Right	A	10/11/2016	10:26:54	150	TrialSecondaParte	ambush	amshy	2	731	1
9	26	Female	Right	A	10/11/2016	10:26:54	151	TrialTerzaParte	trainee	train	1	638	2
9	26	Female	Right	A	10/11/2016	10:26:54	152	TrialTerzaParte	awaken	tood	2	727	1
9	26	Female	Right	A	10/11/2016	10:26:54	153	TrialTerzaParte	murderous	invent	0	493	2
9	26	Female	Right	A	10/11/2016	10:26:54	154	TrialTerzaParte	lethal	lerd	2	581	1
9	26	Female	Right	A	10/11/2016	10:26:54	155	TrialTerzaParte	talker	claf	2	561	1
9	26	Female	Right	A	10/11/2016	10:26:54	156	TrialTerzaParte	masonry	dream	0	522	2
9	26	Female	Right	A	10/11/2016	10:26:54	157	TrialTerzaParte	creamy	cream	1	362	2
9	26	Female	Right	A	10/11/2016	10:26:54	158	TrialTerzaParte	composer	alarm	0	537	2
9	26	Female	Right	A	10/11/2016	10:26:54	159	TrialTerzaParte	anxiously	legend	0	855	2
9	26	Female	Right	A	10/11/2016	10:26:54	160	TrialTerzaParte	golfer	golf	1	650	2
9	26	Female	Right	A	10/11/2016	10:26:54	161	TrialTerzaParte	exemption	renew	0	857	2
9	26	Female	Right	A	10/11/2016	10:26:54	162	TrialTerzaParte	asterix	cret	2	775	1
9	26	Female	Right	A	10/11/2016	10:26:54	163	TrialTerzaParte	edible	esigh	2	930	1
9	26	Female	Right	A	10/11/2016	10:26:54	164	TrialTerzaParte	number	numb	1	687	2
9	26	Female	Right	A	10/11/2016	10:26:54	165	TrialTerzaParte	production	depart	0	620	2
9	26	Female	Right	A	10/11/2016	10:26:54	166	TrialTerzaParte	sniper	snip	1	800	2
9	26	Female	Right	A	10/11/2016	10:26:54	167	TrialTerzaParte	freeze	free	1	812	2
9	26	Female	Right	A	10/11/2016	10:26:54	168	TrialTerzaParte	risky	risk	1	514	2
9	26	Female	Right	A	10/11/2016	10:26:54	169	TrialTerzaParte	unspoilt	nalky	2	676	1
9	26	Female	Right	A	10/11/2016	10:26:54	170	TrialTerzaParte	feathery	drunk	0	669	2
9	26	Female	Right	A	10/11/2016	10:26:54	171	TrialTerzaParte	summit	sutty	2	794	1
9	26	Female	Right	A	10/11/2016	10:26:54	172	TrialTerzaParte	airtight	aith	2	701	1
9	26	Female	Right	A	10/11/2016	10:26:54	173	TrialTerzaParte	fossilise	oxygen	0	586	2
9	26	Female	Right	A	10/11/2016	10:26:54	174	TrialTerzaParte	stunt	stun	1	613	1
9	26	Female	Right	A	10/11/2016	10:26:54	175	TrialTerzaParte	addition	employ	0	640	2
9	26	Female	Right	A	10/11/2016	10:26:54	176	TrialTerzaParte	geisha	crove	2	781	2
9	26	Female	Right	A	10/11/2016	10:26:54	177	TrialTerzaParte	polite	tind	2	849	1
9	26	Female	Right	A	10/11/2016	10:26:54	178	TrialTerzaParte	grossly	villa	0	775	2
9	26	Female	Right	A	10/11/2016	10:26:54	179	TrialTerzaParte	ability	colon	0	625	2
9	26	Female	Right	A	10/11/2016	10:26:54	180	TrialTerzaParte	itinerary	itiner	2	1530	1
9	26	Female	Right	A	10/11/2016	10:26:54	181	TrialTerzaParte	vivacious	vicis	2	839	1
9	26	Female	Right	A	10/11/2016	10:26:54	182	TrialTerzaParte	linkage	flion	2	756	1
9	26	Female	Right	A	10/11/2016	10:26:54	183	TrialTerzaParte	bearded	beard	1	735	2
9	26	Female	Right	A	10/11/2016	10:26:54	184	TrialTerzaParte	postage	poth	2	703	1
9	26	Female	Right	A	10/11/2016	10:26:54	185	TrialTerzaParte	pottage	posch	2	633	1
9	26	Female	Right	A	10/11/2016	10:26:54	186	TrialTerzaParte	vengeful	cherb	2	1500	1
9	26	Female	Right	A	10/11/2016	10:26:54	187	TrialTerzaParte	maximum	suyte	2	672	1
9	26	Female	Right	A	10/11/2016	10:26:54	188	TrialTerzaParte	narrowly	scull	0	679	2
9	26	Female	Right	A	10/11/2016	10:26:54	189	TrialTerzaParte	finally	teach	0	772	2
9	26	Female	Right	A	10/11/2016	10:26:54	190	TrialTerzaParte	stressful	abgaid	2	1042	1
9	26	Female	Right	A	10/11/2016	10:26:54	191	TrialTerzaParte	yardage	yage	2	1063	1
9	26	Female	Right	A	10/11/2016	10:26:54	192	TrialTerzaParte	difference	difrol	2	1036	1
9	26	Female	Right	A	10/11/2016	10:26:54	193	TrialTerzaParte	moulder	moure	2	1057	1
9	26	Female	Right	A	10/11/2016	10:26:54	194	TrialTerzaParte	unique	unzed	2	858	1
9	26	Female	Right	A	10/11/2016	10:26:54	195	TrialTerzaParte	adopted	adopt	1	842	2
9	26	Female	Right	A	10/11/2016	10:26:54	196	TrialTerzaParte	flicker	flick	1	696	2
9	26	Female	Right	A	10/11/2016	10:26:54	197	TrialTerzaParte	plush	plus	1	779	2
9	26	Female	Right	A	10/11/2016	10:26:54	198	TrialTerzaParte	citation	fuse	0	843	2
9	26	Female	Right	A	10/11/2016	10:26:54	199	TrialTerzaParte	quartz	quart	1	1152	2
9	26	Female	Right	A	10/11/2016	10:26:54	200	TrialTerzaParte	foundry	brisk	0	651	2
9	26	Female	Right	A	10/11/2016	10:26:54	201	TrialTerzaParte	swotting	chuly	2	988	1
9	26	Female	Right	A	10/11/2016	10:26:54	202	TrialTerzaParte	instruction	demon	0	1050	2
9	26	Female	Right	A	10/11/2016	10:26:54	203	TrialTerzaParte	acidic	acid	1	565	2
9	26	Female	Right	A	10/11/2016	10:26:54	204	TrialTerzaParte	tufted	tuft	1	1175	1
9	26	Female	Right	A	10/11/2016	10:26:54	205	TrialTerzaParte	existent	gruel	0	1361	1
9	26	Female	Right	A	10/11/2016	10:26:54	206	TrialTerzaParte	illicit	ilkis	2	779	1
9	26	Female	Right	A	10/11/2016	10:26:54	207	TrialTerzaParte	signal	quir	2	1091	1
9	26	Female	Right	A	10/11/2016	10:26:54	208	TrialTerzaParte	deficit	dety	2	784	1
9	26	Female	Right	A	10/11/2016	10:26:54	209	TrialTerzaParte	weird	weir	1	438	2
9	26	Female	Right	A	10/11/2016	10:26:54	210	TrialTerzaParte	whisker	whisk	1	859	2
9	26	Female	Right	A	10/11/2016	10:26:54	211	TrialTerzaParte	hearty	heart	1	612	2
9	26	Female	Right	A	10/11/2016	10:26:54	212	TrialTerzaParte	bomber	bomb	1	723	2
9	26	Female	Right	A	10/11/2016	10:26:54	213	TrialTerzaParte	booklet	text	0	634	2
9	26	Female	Right	A	10/11/2016	10:26:54	214	TrialTerzaParte	crooked	crook	1	667	2
9	26	Female	Right	A	10/11/2016	10:26:54	215	TrialTerzaParte	abstract	fewtu	2	762	1
9	26	Female	Right	A	10/11/2016	10:26:54	216	TrialTerzaParte	guilty	guilt	1	802	2
9	26	Female	Right	A	10/11/2016	10:26:54	217	TrialTerzaParte	child	sild	2	716	1
9	26	Female	Right	A	10/11/2016	10:26:54	218	TrialTerzaParte	phoenix	blont	2	1106	1
9	26	Female	Right	A	10/11/2016	10:26:54	219	TrialTerzaParte	passel	turp	2	966	1
9	26	Female	Right	A	10/11/2016	10:26:54	220	TrialTerzaParte	defector	stamp	0	1046	2
9	26	Female	Right	A	10/11/2016	10:26:54	221	TrialTerzaParte	skylight	skigh	2	894	1
9	26	Female	Right	A	10/11/2016	10:26:54	222	TrialTerzaParte	analogy	anopy	2	567	1
9	26	Female	Right	A	10/11/2016	10:26:54	223	TrialTerzaParte	plastic	spaxe	2	689	1
9	26	Female	Right	A	10/11/2016	10:26:54	224	TrialTerzaParte	palpably	amen	0	932	2
9	26	Female	Right	A	10/11/2016	10:26:54	225	TrialTerzaParte	chilly	chill	1	713	2
9	26	Female	Right	A	10/11/2016	10:26:54	226	TrialQuartaParte	sudden	verty	2	689	1
9	26	Female	Right	A	10/11/2016	10:26:54	227	TrialQuartaParte	bourbon	boun	2	696	1
9	26	Female	Right	A	10/11/2016	10:26:54	228	TrialQuartaParte	biscuit	bist	2	574	1
9	26	Female	Right	A	10/11/2016	10:26:54	229	TrialQuartaParte	tactile	tact	1	546	2
9	26	Female	Right	A	10/11/2016	10:26:54	230	TrialQuartaParte	tributary	calin	2	760	1
9	26	Female	Right	A	10/11/2016	10:26:54	231	TrialQuartaParte	scrooge	plich	2	524	1
9	26	Female	Right	A	10/11/2016	10:26:54	232	TrialQuartaParte	snobbish	green	0	549	2
9	26	Female	Right	A	10/11/2016	10:26:54	233	TrialQuartaParte	haulier	halfe	2	635	1
9	26	Female	Right	A	10/11/2016	10:26:54	234	TrialQuartaParte	raffle	rafel	2	660	1
9	26	Female	Right	A	10/11/2016	10:26:54	235	TrialQuartaParte	category	cagre	2	537	1
9	26	Female	Right	A	10/11/2016	10:26:54	236	TrialQuartaParte	actually	quest	0	1360	2
9	26	Female	Right	A	10/11/2016	10:26:54	237	TrialQuartaParte	bulbous	bulb	1	1006	2
9	26	Female	Right	A	10/11/2016	10:26:54	238	TrialQuartaParte	dragon	dron	2	939	1
9	26	Female	Right	A	10/11/2016	10:26:54	239	TrialQuartaParte	classic	clals	2	722	1
9	26	Female	Right	A	10/11/2016	10:26:54	240	TrialQuartaParte	revolutionise	sivert	2	1330	1
9	26	Female	Right	A	10/11/2016	10:26:54	241	TrialQuartaParte	plunder	acre	0	1226	2
9	26	Female	Right	A	10/11/2016	10:26:54	242	TrialQuartaParte	gloomy	gloom	1	581	2
9	26	Female	Right	A	10/11/2016	10:26:54	243	TrialQuartaParte	pulpit	pulp	1	1089	2
9	26	Female	Right	A	10/11/2016	10:26:54	244	TrialQuartaParte	equipment	agree	0	688	2
9	26	Female	Right	A	10/11/2016	10:26:54	245	TrialQuartaParte	marshy	marsh	1	1160	2
9	26	Female	Right	A	10/11/2016	10:26:54	246	TrialQuartaParte	smuggle	smug	1	1653	2
9	26	Female	Right	A	10/11/2016	10:26:54	247	TrialQuartaParte	penguin	phorb	2	981	1
9	26	Female	Right	A	10/11/2016	10:26:54	248	TrialQuartaParte	tendency	critic	0	706	2
9	26	Female	Right	A	10/11/2016	10:26:54	249	TrialQuartaParte	fanatic	fanty	2	715	1
9	26	Female	Right	A	10/11/2016	10:26:54	250	TrialQuartaParte	maternal	malern	2	858	1
9	26	Female	Right	A	10/11/2016	10:26:54	251	TrialQuartaParte	struggled	neigh	0	536	1
9	26	Female	Right	A	10/11/2016	10:26:54	252	TrialQuartaParte	galaxy	gala	1	603	1
9	26	Female	Right	A	10/11/2016	10:26:54	253	TrialQuartaParte	socialiser	flepity	2	541	1
9	26	Female	Right	A	10/11/2016	10:26:54	254	TrialQuartaParte	planet	plan	1	681	2
9	26	Female	Right	A	10/11/2016	10:26:54	255	TrialQuartaParte	legacy	lecy	2	1242	1
9	26	Female	Right	A	10/11/2016	10:26:54	256	TrialQuartaParte	fabulous	smaply	2	708	1
9	26	Female	Right	A	10/11/2016	10:26:54	257	TrialQuartaParte	stirrup	stir	1	677	2
9	26	Female	Right	A	10/11/2016	10:26:54	258	TrialQuartaParte	glade	glad	1	586	2
9	26	Female	Right	A	10/11/2016	10:26:54	259	TrialQuartaParte	warfare	broth	0	778	2
9	26	Female	Right	A	10/11/2016	10:26:54	260	TrialQuartaParte	merrier	merks	2	1165	1
9	26	Female	Right	A	10/11/2016	10:26:54	261	TrialQuartaParte	syphilis	ruar	2	938	1
9	26	Female	Right	A	10/11/2016	10:26:54	262	TrialQuartaParte	dialog	dial	1	1126	2
9	26	Female	Right	A	10/11/2016	10:26:54	263	TrialQuartaParte	wearily	diet	0	690	2
9	26	Female	Right	A	10/11/2016	10:26:54	264	TrialQuartaParte	supplant	plosy	2	656	1
9	26	Female	Right	A	10/11/2016	10:26:54	265	TrialQuartaParte	sovereign	sovign	2	803	1
9	26	Female	Right	A	10/11/2016	10:26:54	266	TrialQuartaParte	irony	iron	1	554	2
9	26	Female	Right	A	10/11/2016	10:26:54	267	TrialQuartaParte	muffin	mufir	2	807	1
9	26	Female	Right	A	10/11/2016	10:26:54	268	TrialQuartaParte	sufferer	gloss	0	602	2
9	26	Female	Right	A	10/11/2016	10:26:54	269	TrialQuartaParte	shovel	shove	1	1136	2
9	26	Female	Right	A	10/11/2016	10:26:54	270	TrialQuartaParte	nincompoops	ninpoo	2	721	1
9	26	Female	Right	A	10/11/2016	10:26:54	271	TrialQuartaParte	ceramic	cerbs	2	781	1
9	26	Female	Right	A	10/11/2016	10:26:54	272	TrialQuartaParte	plonking	pluny	2	662	1
9	26	Female	Right	A	10/11/2016	10:26:54	273	TrialQuartaParte	genetic	genth	2	642	1
9	26	Female	Right	A	10/11/2016	10:26:54	274	TrialQuartaParte	killer	lalf	2	658	1
9	26	Female	Right	A	10/11/2016	10:26:54	275	TrialQuartaParte	answer	anwe	2	557	1
9	26	Female	Right	A	10/11/2016	10:26:54	276	TrialQuartaParte	united	unit	1	652	2
9	26	Female	Right	A	10/11/2016	10:26:54	277	TrialQuartaParte	benignly	basil	0	584	2
9	26	Female	Right	A	10/11/2016	10:26:54	278	TrialQuartaParte	opposition	nunfy	2	641	1
9	26	Female	Right	A	10/11/2016	10:26:54	279	TrialQuartaParte	desert	dert	2	845	1
9	26	Female	Right	A	10/11/2016	10:26:54	280	TrialQuartaParte	fisher	fims	2	1452	2
9	26	Female	Right	A	10/11/2016	10:26:54	281	TrialQuartaParte	widowed	widow	1	1078	2
9	26	Female	Right	A	10/11/2016	10:26:54	282	TrialQuartaParte	loyally	buzz	0	720	2
9	26	Female	Right	A	10/11/2016	10:26:54	283	TrialQuartaParte	veteran	venic	2	828	1
9	26	Female	Right	A	10/11/2016	10:26:54	284	TrialQuartaParte	passant	pasks	2	948	1
9	26	Female	Right	A	10/11/2016	10:26:54	285	TrialQuartaParte	rancour	brits	2	876	2
9	26	Female	Right	A	10/11/2016	10:26:54	286	TrialQuartaParte	engage	yurd	2	581	1
9	26	Female	Right	A	10/11/2016	10:26:54	287	TrialQuartaParte	missive	float	0	595	2
9	26	Female	Right	A	10/11/2016	10:26:54	288	TrialQuartaParte	ribbon	ribed	2	662	1
9	26	Female	Right	A	10/11/2016	10:26:54	289	TrialQuartaParte	gaiety	harse	2	853	2
9	26	Female	Right	A	10/11/2016	10:26:54	290	TrialQuartaParte	validity	infant	0	580	2
9	26	Female	Right	A	10/11/2016	10:26:54	291	TrialQuartaParte	kinetic	kinse	2	583	1
9	26	Female	Right	A	10/11/2016	10:26:54	292	TrialQuartaParte	decision	posig	2	521	1
9	26	Female	Right	A	10/11/2016	10:26:54	293	TrialQuartaParte	mimicry	quiet	0	672	2
9	26	Female	Right	A	10/11/2016	10:26:54	294	TrialQuartaParte	anaesthetic	invest	0	725	2
9	26	Female	Right	A	10/11/2016	10:26:54	295	TrialQuartaParte	equally	comma	0	825	2
9	26	Female	Right	A	10/11/2016	10:26:54	296	TrialQuartaParte	snobby	snool	2	968	1
9	26	Female	Right	A	10/11/2016	10:26:54	297	TrialQuartaParte	voucher	baron	0	1038	2
9	26	Female	Right	A	10/11/2016	10:26:54	298	TrialQuartaParte	vertical	verks	2	608	1
9	26	Female	Right	A	10/11/2016	10:26:54	299	TrialQuartaParte	content	conly	2	621	1
9	26	Female	Right	A	10/11/2016	10:26:54	300	TrialQuartaParte	dreadful	phone	0	611	2
