Subject	Age	Gender	Handedness	Rotation	Data	OraStart	TrialCount	TrialType	Prime	Target	Relatedness	rt	Resp
7	26	Female	Right	A	09/11/2016	13:24:38	1	Prova	wellness	well	4	158919	2
7	26	Female	Right	A	09/11/2016	13:24:38	2	Prova	homeless	home	4	454	2
7	26	Female	Right	A	09/11/2016	13:24:38	3	Prova	tricky	tricker	4	893	1
7	26	Female	Right	A	09/11/2016	13:24:38	4	Prova	character	char	4	949	1
7	26	Female	Right	A	09/11/2016	13:24:38	5	Prova	translater	pulter	4	641	1
7	26	Female	Right	A	09/11/2016	13:24:38	6	Prova2	escape	exat	4	627	1
7	26	Female	Right	A	09/11/2016	13:24:38	7	Prova2	investigator	invest	4	680	2
7	26	Female	Right	A	09/11/2016	13:24:38	8	Prova2	examiner	exam	4	521	2
7	26	Female	Right	A	09/11/2016	13:24:38	9	Prova2	topic	top	4	567	2
7	26	Female	Right	A	09/11/2016	13:24:38	1	Warmup	unpack	pack	5	473	2
7	26	Female	Right	A	09/11/2016	13:24:38	2	Warmup	tartare	tariff	5	720	2
7	26	Female	Right	A	09/11/2016	13:24:38	3	Warmup	cowrie	sturms	5	663	1
7	26	Female	Right	A	09/11/2016	13:24:38	4	Warmup	cortex	newbie	5	615	1
7	26	Female	Right	A	09/11/2016	13:24:38	5	Warmup	pullma	pulm	5	670	1
7	26	Female	Right	A	09/11/2016	13:24:38	1	TrialPrimaParte	manual	mals	2	1016	1
7	26	Female	Right	A	09/11/2016	13:24:38	2	TrialPrimaParte	starter	disc	0	1179	2
7	26	Female	Right	A	09/11/2016	13:24:38	3	TrialPrimaParte	alcoholic	fruit	0	556	2
7	26	Female	Right	A	09/11/2016	13:24:38	4	TrialPrimaParte	filthy	filth	1	962	1
7	26	Female	Right	A	09/11/2016	13:24:38	5	TrialPrimaParte	plastic	spaxe	2	743	1
7	26	Female	Right	A	09/11/2016	13:24:38	6	TrialPrimaParte	blush	blif	2	555	1
7	26	Female	Right	A	09/11/2016	13:24:38	7	TrialPrimaParte	service	count	0	624	2
7	26	Female	Right	A	09/11/2016	13:24:38	8	TrialPrimaParte	foundry	brisk	0	658	2
7	26	Female	Right	A	09/11/2016	13:24:38	9	TrialPrimaParte	skylight	skigh	2	648	1
7	26	Female	Right	A	09/11/2016	13:24:38	10	TrialPrimaParte	clanger	spant	2	825	1
7	26	Female	Right	A	09/11/2016	13:24:38	11	TrialPrimaParte	killer	lalf	2	720	1
7	26	Female	Right	A	09/11/2016	13:24:38	12	TrialPrimaParte	situation	govern	0	564	2
7	26	Female	Right	A	09/11/2016	13:24:38	13	TrialPrimaParte	guilty	guilt	1	666	2
7	26	Female	Right	A	09/11/2016	13:24:38	14	TrialPrimaParte	lectureship	parent	0	531	2
7	26	Female	Right	A	09/11/2016	13:24:38	15	TrialPrimaParte	crush	bemp	2	518	1
7	26	Female	Right	A	09/11/2016	13:24:38	16	TrialPrimaParte	desert	dert	2	676	1
7	26	Female	Right	A	09/11/2016	13:24:38	17	TrialPrimaParte	religious	sisby	2	933	1
7	26	Female	Right	A	09/11/2016	13:24:38	18	TrialPrimaParte	palpably	amen	0	611	2
7	26	Female	Right	A	09/11/2016	13:24:38	19	TrialPrimaParte	masonry	dream	0	603	2
7	26	Female	Right	A	09/11/2016	13:24:38	20	TrialPrimaParte	revolutionary	intern	0	746	2
7	26	Female	Right	A	09/11/2016	13:24:38	21	TrialPrimaParte	swotting	chuly	2	805	1
7	26	Female	Right	A	09/11/2016	13:24:38	22	TrialPrimaParte	irony	iron	1	744	2
7	26	Female	Right	A	09/11/2016	13:24:38	23	TrialPrimaParte	fossilise	oxygen	0	551	2
7	26	Female	Right	A	09/11/2016	13:24:38	24	TrialPrimaParte	voucher	baron	0	700	2
7	26	Female	Right	A	09/11/2016	13:24:38	25	TrialPrimaParte	sufferer	gloss	0	586	2
7	26	Female	Right	A	09/11/2016	13:24:38	26	TrialPrimaParte	united	unit	1	462	2
7	26	Female	Right	A	09/11/2016	13:24:38	27	TrialPrimaParte	answer	anwe	2	608	1
7	26	Female	Right	A	09/11/2016	13:24:38	28	TrialPrimaParte	portal	balp	2	603	1
7	26	Female	Right	A	09/11/2016	13:24:38	29	TrialPrimaParte	brandy	brand	1	625	2
7	26	Female	Right	A	09/11/2016	13:24:38	30	TrialPrimaParte	fizzle	fizz	1	753	1
7	26	Female	Right	A	09/11/2016	13:24:38	31	TrialPrimaParte	dusty	dusy	2	620	2
7	26	Female	Right	A	09/11/2016	13:24:38	32	TrialPrimaParte	rabbit	rabbi	1	619	1
7	26	Female	Right	A	09/11/2016	13:24:38	33	TrialPrimaParte	reliable	blidar	2	1086	1
7	26	Female	Right	A	09/11/2016	13:24:38	34	TrialPrimaParte	shunt	shun	1	612	1
7	26	Female	Right	A	09/11/2016	13:24:38	35	TrialPrimaParte	passant	pasks	2	747	1
7	26	Female	Right	A	09/11/2016	13:24:38	36	TrialPrimaParte	pottage	posch	2	936	2
7	26	Female	Right	A	09/11/2016	13:24:38	37	TrialPrimaParte	bomber	bomb	1	599	2
7	26	Female	Right	A	09/11/2016	13:24:38	38	TrialPrimaParte	dysentery	ranin	2	862	1
7	26	Female	Right	A	09/11/2016	13:24:38	39	TrialPrimaParte	quartz	quart	1	692	1
7	26	Female	Right	A	09/11/2016	13:24:38	40	TrialPrimaParte	utter	uls	2	546	1
7	26	Female	Right	A	09/11/2016	13:24:38	41	TrialPrimaParte	child	sild	2	555	1
7	26	Female	Right	A	09/11/2016	13:24:38	42	TrialPrimaParte	boarder	board	1	677	2
7	26	Female	Right	A	09/11/2016	13:24:38	43	TrialPrimaParte	piratical	pirent	2	676	1
7	26	Female	Right	A	09/11/2016	13:24:38	44	TrialPrimaParte	awaken	tood	2	780	1
7	26	Female	Right	A	09/11/2016	13:24:38	45	TrialPrimaParte	postage	poth	2	730	2
7	26	Female	Right	A	09/11/2016	13:24:38	46	TrialPrimaParte	signal	quir	2	651	1
7	26	Female	Right	A	09/11/2016	13:24:38	47	TrialPrimaParte	graphic	blamp	2	714	1
7	26	Female	Right	A	09/11/2016	13:24:38	48	TrialPrimaParte	sleet	slit	2	995	1
7	26	Female	Right	A	09/11/2016	13:24:38	49	TrialPrimaParte	grouse	gruf	2	581	1
7	26	Female	Right	A	09/11/2016	13:24:38	50	TrialPrimaParte	scruffy	thick	0	885	1
7	26	Female	Right	A	09/11/2016	13:24:38	51	TrialPrimaParte	citation	fuse	0	933	2
7	26	Female	Right	A	09/11/2016	13:24:38	52	TrialPrimaParte	tract	trep	2	571	1
7	26	Female	Right	A	09/11/2016	13:24:38	53	TrialPrimaParte	dreadful	phone	0	568	2
7	26	Female	Right	A	09/11/2016	13:24:38	54	TrialPrimaParte	extremism	liquid	0	594	2
7	26	Female	Right	A	09/11/2016	13:24:38	55	TrialPrimaParte	novelty	surge	0	851	1
7	26	Female	Right	A	09/11/2016	13:24:38	56	TrialPrimaParte	phoenix	blont	2	624	1
7	26	Female	Right	A	09/11/2016	13:24:38	57	TrialPrimaParte	passel	turp	2	714	1
7	26	Female	Right	A	09/11/2016	13:24:38	58	TrialPrimaParte	difference	difrol	2	576	1
7	26	Female	Right	A	09/11/2016	13:24:38	59	TrialPrimaParte	polite	tind	2	826	1
7	26	Female	Right	A	09/11/2016	13:24:38	60	TrialPrimaParte	summit	sutty	2	618	1
7	26	Female	Right	A	09/11/2016	13:24:38	61	TrialPrimaParte	vertical	verks	2	690	1
7	26	Female	Right	A	09/11/2016	13:24:38	62	TrialPrimaParte	ribbon	ribed	2	888	2
7	26	Female	Right	A	09/11/2016	13:24:38	63	TrialPrimaParte	lethal	lerd	2	1065	1
7	26	Female	Right	A	09/11/2016	13:24:38	64	TrialPrimaParte	stressful	abgaid	2	664	1
7	26	Female	Right	A	09/11/2016	13:24:38	65	TrialPrimaParte	pummel	syly	2	698	1
7	26	Female	Right	A	09/11/2016	13:24:38	66	TrialPrimaParte	equipment	agree	0	521	2
7	26	Female	Right	A	09/11/2016	13:24:38	67	TrialPrimaParte	epileptic	candid	0	547	2
7	26	Female	Right	A	09/11/2016	13:24:38	68	TrialPrimaParte	fleshy	flesh	1	797	2
7	26	Female	Right	A	09/11/2016	13:24:38	69	TrialPrimaParte	enactment	cloud	0	598	2
7	26	Female	Right	A	09/11/2016	13:24:38	70	TrialPrimaParte	monastery	fagor	2	928	1
7	26	Female	Right	A	09/11/2016	13:24:38	71	TrialPrimaParte	viewer	view	1	506	2
7	26	Female	Right	A	09/11/2016	13:24:38	72	TrialPrimaParte	stroke	cligh	2	651	1
7	26	Female	Right	A	09/11/2016	13:24:38	73	TrialPrimaParte	content	conly	2	596	1
7	26	Female	Right	A	09/11/2016	13:24:38	74	TrialPrimaParte	maximum	suyte	2	585	1
7	26	Female	Right	A	09/11/2016	13:24:38	75	TrialPrimaParte	message	rosty	2	1177	1
7	26	Female	Right	A	09/11/2016	13:24:38	76	TrialSecondaParte	finally	teach	0	525	2
7	26	Female	Right	A	09/11/2016	13:24:38	77	TrialSecondaParte	decision	posig	2	534	1
7	26	Female	Right	A	09/11/2016	13:24:38	78	TrialSecondaParte	treaty	treat	1	512	2
7	26	Female	Right	A	09/11/2016	13:24:38	79	TrialSecondaParte	paternal	siter	2	793	1
7	26	Female	Right	A	09/11/2016	13:24:38	80	TrialSecondaParte	marshy	marsh	1	696	1
7	26	Female	Right	A	09/11/2016	13:24:38	81	TrialSecondaParte	talker	claf	2	766	1
7	26	Female	Right	A	09/11/2016	13:24:38	82	TrialSecondaParte	traffic	trepy	2	612	1
7	26	Female	Right	A	09/11/2016	13:24:38	83	TrialSecondaParte	stunt	stun	1	698	1
7	26	Female	Right	A	09/11/2016	13:24:38	84	TrialSecondaParte	routeing	tomed	2	592	1
7	26	Female	Right	A	09/11/2016	13:24:38	85	TrialSecondaParte	golfer	golf	1	632	2
7	26	Female	Right	A	09/11/2016	13:24:38	86	TrialSecondaParte	twitch	twit	1	948	1
7	26	Female	Right	A	09/11/2016	13:24:38	87	TrialSecondaParte	muffin	mufir	2	712	1
7	26	Female	Right	A	09/11/2016	13:24:38	88	TrialSecondaParte	suburban	elect	0	569	2
7	26	Female	Right	A	09/11/2016	13:24:38	89	TrialSecondaParte	broiler	plum	0	612	2
7	26	Female	Right	A	09/11/2016	13:24:38	90	TrialSecondaParte	weird	weir	1	850	1
7	26	Female	Right	A	09/11/2016	13:24:38	91	TrialSecondaParte	fisher	fims	2	845	1
7	26	Female	Right	A	09/11/2016	13:24:38	92	TrialSecondaParte	squawk	squaw	1	734	1
7	26	Female	Right	A	09/11/2016	13:24:38	93	TrialSecondaParte	warfare	broth	0	1026	1
7	26	Female	Right	A	09/11/2016	13:24:38	94	TrialSecondaParte	snobbery	snotty	2	1208	1
7	26	Female	Right	A	09/11/2016	13:24:38	95	TrialSecondaParte	public	pub	1	664	2
7	26	Female	Right	A	09/11/2016	13:24:38	96	TrialSecondaParte	plush	plus	1	532	2
7	26	Female	Right	A	09/11/2016	13:24:38	97	TrialSecondaParte	creamy	cream	1	475	2
7	26	Female	Right	A	09/11/2016	13:24:38	98	TrialSecondaParte	tackler	lerf	2	634	1
7	26	Female	Right	A	09/11/2016	13:24:38	99	TrialSecondaParte	unique	unzed	2	633	1
7	26	Female	Right	A	09/11/2016	13:24:38	100	TrialSecondaParte	abstain	abter	2	532	1
7	26	Female	Right	A	09/11/2016	13:24:38	101	TrialSecondaParte	plonking	pluny	2	649	1
7	26	Female	Right	A	09/11/2016	13:24:38	102	TrialSecondaParte	physical	react	0	604	2
7	26	Female	Right	A	09/11/2016	13:24:38	103	TrialSecondaParte	exemption	renew	0	628	2
7	26	Female	Right	A	09/11/2016	13:24:38	104	TrialSecondaParte	button	butt	1	765	2
7	26	Female	Right	A	09/11/2016	13:24:38	105	TrialSecondaParte	anaesthetic	invest	0	612	2
7	26	Female	Right	A	09/11/2016	13:24:38	106	TrialSecondaParte	opposition	nunfy	2	680	1
7	26	Female	Right	A	09/11/2016	13:24:38	107	TrialSecondaParte	analogy	anopy	2	650	1
7	26	Female	Right	A	09/11/2016	13:24:38	108	TrialSecondaParte	absence	agsel	2	547	1
7	26	Female	Right	A	09/11/2016	13:24:38	109	TrialSecondaParte	vicarage	erupt	0	628	2
7	26	Female	Right	A	09/11/2016	13:24:38	110	TrialSecondaParte	bulbous	bulb	1	582	2
7	26	Female	Right	A	09/11/2016	13:24:38	111	TrialSecondaParte	helmet	helm	1	690	2
7	26	Female	Right	A	09/11/2016	13:24:38	112	TrialSecondaParte	dweller	crypt	0	946	2
7	26	Female	Right	A	09/11/2016	13:24:38	113	TrialSecondaParte	ambush	amshy	2	968	1
7	26	Female	Right	A	09/11/2016	13:24:38	114	TrialSecondaParte	nymphet	nymph	1	616	2
7	26	Female	Right	A	09/11/2016	13:24:38	115	TrialSecondaParte	widowed	widow	1	1049	2
7	26	Female	Right	A	09/11/2016	13:24:38	116	TrialSecondaParte	medical	surf	0	556	2
7	26	Female	Right	A	09/11/2016	13:24:38	117	TrialSecondaParte	hatchery	fighy	2	967	1
7	26	Female	Right	A	09/11/2016	13:24:38	118	TrialSecondaParte	trashy	rell	2	769	1
7	26	Female	Right	A	09/11/2016	13:24:38	119	TrialSecondaParte	gastric	waser	2	713	1
7	26	Female	Right	A	09/11/2016	13:24:38	120	TrialSecondaParte	engage	yurd	2	553	1
7	26	Female	Right	A	09/11/2016	13:24:38	121	TrialSecondaParte	trumpet	trump	1	771	2
7	26	Female	Right	A	09/11/2016	13:24:38	122	TrialSecondaParte	armoury	arwor	2	722	1
7	26	Female	Right	A	09/11/2016	13:24:38	123	TrialSecondaParte	culprit	cuti	2	622	1
7	26	Female	Right	A	09/11/2016	13:24:38	124	TrialSecondaParte	defector	stamp	0	599	2
7	26	Female	Right	A	09/11/2016	13:24:38	125	TrialSecondaParte	early	earl	1	610	2
7	26	Female	Right	A	09/11/2016	13:24:38	126	TrialSecondaParte	sudden	verty	2	876	1
7	26	Female	Right	A	09/11/2016	13:24:38	127	TrialSecondaParte	instruction	demon	0	627	2
7	26	Female	Right	A	09/11/2016	13:24:38	128	TrialSecondaParte	moisture	stub	0	1085	2
7	26	Female	Right	A	09/11/2016	13:24:38	129	TrialSecondaParte	gloomy	gloom	1	737	2
7	26	Female	Right	A	09/11/2016	13:24:38	130	TrialSecondaParte	moulder	moure	2	742	1
7	26	Female	Right	A	09/11/2016	13:24:38	131	TrialSecondaParte	absurdity	plain	0	649	2
7	26	Female	Right	A	09/11/2016	13:24:38	132	TrialSecondaParte	developer	court	0	592	2
7	26	Female	Right	A	09/11/2016	13:24:38	133	TrialSecondaParte	prosecution	leler	2	662	1
7	26	Female	Right	A	09/11/2016	13:24:38	134	TrialSecondaParte	scrape	scrap	1	621	2
7	26	Female	Right	A	09/11/2016	13:24:38	135	TrialSecondaParte	airtight	aith	2	697	1
7	26	Female	Right	A	09/11/2016	13:24:38	136	TrialSecondaParte	vengeful	cherb	2	790	1
7	26	Female	Right	A	09/11/2016	13:24:38	137	TrialSecondaParte	amateurish	inhibit	0	702	2
7	26	Female	Right	A	09/11/2016	13:24:38	138	TrialSecondaParte	raffle	rafel	2	574	1
7	26	Female	Right	A	09/11/2016	13:24:38	139	TrialSecondaParte	original	orive	2	679	1
7	26	Female	Right	A	09/11/2016	13:24:38	140	TrialSecondaParte	feathery	drunk	0	559	2
7	26	Female	Right	A	09/11/2016	13:24:38	141	TrialSecondaParte	penguin	phorb	2	693	1
7	26	Female	Right	A	09/11/2016	13:24:38	142	TrialSecondaParte	bourbon	boun	2	602	1
7	26	Female	Right	A	09/11/2016	13:24:38	143	TrialSecondaParte	heaven	heave	1	825	1
7	26	Female	Right	A	09/11/2016	13:24:38	144	TrialSecondaParte	revolutionise	sivert	2	603	1
7	26	Female	Right	A	09/11/2016	13:24:38	145	TrialSecondaParte	genetic	genth	2	1027	1
7	26	Female	Right	A	09/11/2016	13:24:38	146	TrialSecondaParte	ceramic	cerbs	2	760	1
7	26	Female	Right	A	09/11/2016	13:24:38	147	TrialSecondaParte	linkage	flion	2	624	1
7	26	Female	Right	A	09/11/2016	13:24:38	148	TrialSecondaParte	fibrosis	shuar	2	622	1
7	26	Female	Right	A	09/11/2016	13:24:38	149	TrialSecondaParte	halogen	haly	2	652	1
7	26	Female	Right	A	09/11/2016	13:24:38	150	TrialSecondaParte	highlight	gylpo	2	588	1
7	26	Female	Right	A	09/11/2016	13:24:38	151	TrialTerzaParte	loyally	buzz	0	652	2
7	26	Female	Right	A	09/11/2016	13:24:38	152	TrialTerzaParte	hearty	heart	1	662	2
7	26	Female	Right	A	09/11/2016	13:24:38	153	TrialTerzaParte	putty	putt	1	834	1
7	26	Female	Right	A	09/11/2016	13:24:38	154	TrialTerzaParte	signet	sign	1	539	2
7	26	Female	Right	A	09/11/2016	13:24:38	155	TrialTerzaParte	vivacious	vicis	2	618	1
7	26	Female	Right	A	09/11/2016	13:24:38	156	TrialTerzaParte	merrier	merks	2	790	1
7	26	Female	Right	A	09/11/2016	13:24:38	157	TrialTerzaParte	soften	soft	1	523	2
7	26	Female	Right	A	09/11/2016	13:24:38	158	TrialTerzaParte	socialiser	flepity	2	846	1
7	26	Female	Right	A	09/11/2016	13:24:38	159	TrialTerzaParte	mimicry	quiet	0	554	2
7	26	Female	Right	A	09/11/2016	13:24:38	160	TrialTerzaParte	turmoil	furm	2	593	1
7	26	Female	Right	A	09/11/2016	13:24:38	161	TrialTerzaParte	existent	gruel	0	635	1
7	26	Female	Right	A	09/11/2016	13:24:38	162	TrialTerzaParte	scanner	rast	2	630	1
7	26	Female	Right	A	09/11/2016	13:24:38	163	TrialTerzaParte	idealism	splint	0	670	1
7	26	Female	Right	A	09/11/2016	13:24:38	164	TrialTerzaParte	sensuous	secly	2	592	1
7	26	Female	Right	A	09/11/2016	13:24:38	165	TrialTerzaParte	inherent	inpock	2	551	1
7	26	Female	Right	A	09/11/2016	13:24:38	166	TrialTerzaParte	centimetres	censar	2	910	1
7	26	Female	Right	A	09/11/2016	13:24:38	167	TrialTerzaParte	ability	colon	0	677	2
7	26	Female	Right	A	09/11/2016	13:24:38	168	TrialTerzaParte	yardage	yage	2	579	1
7	26	Female	Right	A	09/11/2016	13:24:38	169	TrialTerzaParte	stirrup	stir	1	616	2
7	26	Female	Right	A	09/11/2016	13:24:38	170	TrialTerzaParte	narrowly	scull	0	760	2
7	26	Female	Right	A	09/11/2016	13:24:38	171	TrialTerzaParte	foetal	fongs	2	771	1
7	26	Female	Right	A	09/11/2016	13:24:38	172	TrialTerzaParte	archer	arch	1	555	2
7	26	Female	Right	A	09/11/2016	13:24:38	173	TrialTerzaParte	risky	risk	1	478	2
7	26	Female	Right	A	09/11/2016	13:24:38	174	TrialTerzaParte	timidly	arse	0	671	2
7	26	Female	Right	A	09/11/2016	13:24:38	175	TrialTerzaParte	dragon	dron	2	625	1
7	26	Female	Right	A	09/11/2016	13:24:38	176	TrialTerzaParte	gluteal	abtle	2	602	1
7	26	Female	Right	A	09/11/2016	13:24:38	177	TrialTerzaParte	production	depart	0	604	2
7	26	Female	Right	A	09/11/2016	13:24:38	178	TrialTerzaParte	equally	comma	0	885	2
7	26	Female	Right	A	09/11/2016	13:24:38	179	TrialTerzaParte	criminal	huare	2	595	1
7	26	Female	Right	A	09/11/2016	13:24:38	180	TrialTerzaParte	sniper	snip	1	630	2
7	26	Female	Right	A	09/11/2016	13:24:38	181	TrialTerzaParte	plunder	acre	0	535	1
7	26	Female	Right	A	09/11/2016	13:24:38	182	TrialTerzaParte	tamponade	ruffy	2	796	2
7	26	Female	Right	A	09/11/2016	13:24:38	183	TrialTerzaParte	jetty	kuty	2	1078	1
7	26	Female	Right	A	09/11/2016	13:24:38	184	TrialTerzaParte	benignly	basil	0	669	2
7	26	Female	Right	A	09/11/2016	13:24:38	185	TrialTerzaParte	flicker	flick	1	735	2
7	26	Female	Right	A	09/11/2016	13:24:38	186	TrialTerzaParte	geisha	crove	2	1213	1
7	26	Female	Right	A	09/11/2016	13:24:38	187	TrialTerzaParte	rebound	cous	2	949	2
7	26	Female	Right	A	09/11/2016	13:24:38	188	TrialTerzaParte	fixture	strul	2	716	1
7	26	Female	Right	A	09/11/2016	13:24:38	189	TrialTerzaParte	missive	float	0	562	2
7	26	Female	Right	A	09/11/2016	13:24:38	190	TrialTerzaParte	cousin	coul	2	860	2
7	26	Female	Right	A	09/11/2016	13:24:38	191	TrialTerzaParte	supplant	plosy	2	611	1
7	26	Female	Right	A	09/11/2016	13:24:38	192	TrialTerzaParte	glade	glad	1	1233	2
7	26	Female	Right	A	09/11/2016	13:24:38	193	TrialTerzaParte	believer	append	0	848	2
7	26	Female	Right	A	09/11/2016	13:24:38	194	TrialTerzaParte	trainee	train	1	543	2
7	26	Female	Right	A	09/11/2016	13:24:38	195	TrialTerzaParte	gravel	flixy	2	832	1
7	26	Female	Right	A	09/11/2016	13:24:38	196	TrialTerzaParte	gluten	glut	1	1183	1
7	26	Female	Right	A	09/11/2016	13:24:38	197	TrialTerzaParte	organic	organ	1	880	2
7	26	Female	Right	A	09/11/2016	13:24:38	198	TrialTerzaParte	friendly	north	0	749	2
7	26	Female	Right	A	09/11/2016	13:24:38	199	TrialTerzaParte	griffin	spoff	2	719	1
7	26	Female	Right	A	09/11/2016	13:24:38	200	TrialTerzaParte	unspoilt	nalky	2	701	1
7	26	Female	Right	A	09/11/2016	13:24:38	201	TrialTerzaParte	jauntily	scald	0	848	1
7	26	Female	Right	A	09/11/2016	13:24:38	202	TrialTerzaParte	maternal	malern	2	617	1
7	26	Female	Right	A	09/11/2016	13:24:38	203	TrialTerzaParte	repertory	repty	2	541	1
7	26	Female	Right	A	09/11/2016	13:24:38	204	TrialTerzaParte	crafty	craft	1	639	2
7	26	Female	Right	A	09/11/2016	13:24:38	205	TrialTerzaParte	twinkle	twin	1	562	2
7	26	Female	Right	A	09/11/2016	13:24:38	206	TrialTerzaParte	fabulous	smaply	2	965	1
7	26	Female	Right	A	09/11/2016	13:24:38	207	TrialTerzaParte	syphilis	ruar	2	858	1
7	26	Female	Right	A	09/11/2016	13:24:38	208	TrialTerzaParte	ample	amp	1	968	1
7	26	Female	Right	A	09/11/2016	13:24:38	209	TrialTerzaParte	jerkin	jerk	1	539	2
7	26	Female	Right	A	09/11/2016	13:24:38	210	TrialTerzaParte	fanatic	fanty	2	872	1
7	26	Female	Right	A	09/11/2016	13:24:38	211	TrialTerzaParte	legacy	lecy	2	921	1
7	26	Female	Right	A	09/11/2016	13:24:38	212	TrialTerzaParte	category	cagre	2	636	1
7	26	Female	Right	A	09/11/2016	13:24:38	213	TrialTerzaParte	calmness	artist	0	599	2
7	26	Female	Right	A	09/11/2016	13:24:38	214	TrialTerzaParte	nincompoops	ninpoo	2	840	1
7	26	Female	Right	A	09/11/2016	13:24:38	215	TrialTerzaParte	anxiously	legend	0	514	2
7	26	Female	Right	A	09/11/2016	13:24:38	216	TrialTerzaParte	obviously	secret	0	500	2
7	26	Female	Right	A	09/11/2016	13:24:38	217	TrialTerzaParte	tufted	tuft	1	665	1
7	26	Female	Right	A	09/11/2016	13:24:38	218	TrialTerzaParte	wearily	diet	0	538	2
7	26	Female	Right	A	09/11/2016	13:24:38	219	TrialTerzaParte	bubble	glef	2	615	1
7	26	Female	Right	A	09/11/2016	13:24:38	220	TrialTerzaParte	sovereign	sovign	2	894	1
7	26	Female	Right	A	09/11/2016	13:24:38	221	TrialTerzaParte	rancour	brits	2	1122	1
7	26	Female	Right	A	09/11/2016	13:24:38	222	TrialTerzaParte	fatal	fids	2	642	1
7	26	Female	Right	A	09/11/2016	13:24:38	223	TrialTerzaParte	watcher	angel	0	676	2
7	26	Female	Right	A	09/11/2016	13:24:38	224	TrialTerzaParte	justify	extra	0	601	2
7	26	Female	Right	A	09/11/2016	13:24:38	225	TrialTerzaParte	advisory	advock	2	807	1
7	26	Female	Right	A	09/11/2016	13:24:38	226	TrialQuartaParte	plucky	pluck	1	627	1
7	26	Female	Right	A	09/11/2016	13:24:38	227	TrialQuartaParte	acidic	acid	1	512	2
7	26	Female	Right	A	09/11/2016	13:24:38	228	TrialQuartaParte	veteran	venic	2	628	1
7	26	Female	Right	A	09/11/2016	13:24:38	229	TrialQuartaParte	adopted	adopt	1	461	2
7	26	Female	Right	A	09/11/2016	13:24:38	230	TrialQuartaParte	neutron	whese	2	857	1
7	26	Female	Right	A	09/11/2016	13:24:38	231	TrialQuartaParte	rumbling	ether	0	843	1
7	26	Female	Right	A	09/11/2016	13:24:38	232	TrialQuartaParte	biscuit	bist	2	841	1
7	26	Female	Right	A	09/11/2016	13:24:38	233	TrialQuartaParte	gaiety	harse	2	648	1
7	26	Female	Right	A	09/11/2016	13:24:38	234	TrialQuartaParte	itinerary	itiner	2	819	1
7	26	Female	Right	A	09/11/2016	13:24:38	235	TrialQuartaParte	tactile	tact	1	854	2
7	26	Female	Right	A	09/11/2016	13:24:38	236	TrialQuartaParte	shovel	shove	1	943	1
7	26	Female	Right	A	09/11/2016	13:24:38	237	TrialQuartaParte	validity	infant	0	543	2
7	26	Female	Right	A	09/11/2016	13:24:38	238	TrialQuartaParte	bloody	blood	1	543	2
7	26	Female	Right	A	09/11/2016	13:24:38	239	TrialQuartaParte	swivel	quat	2	1063	1
7	26	Female	Right	A	09/11/2016	13:24:38	240	TrialQuartaParte	number	numb	1	918	2
7	26	Female	Right	A	09/11/2016	13:24:38	241	TrialQuartaParte	galaxy	gala	1	1026	2
7	26	Female	Right	A	09/11/2016	13:24:38	242	TrialQuartaParte	farcical	farxy	2	642	1
7	26	Female	Right	A	09/11/2016	13:24:38	243	TrialQuartaParte	damsel	dalp	2	748	1
7	26	Female	Right	A	09/11/2016	13:24:38	244	TrialQuartaParte	tendency	critic	0	583	2
7	26	Female	Right	A	09/11/2016	13:24:38	245	TrialQuartaParte	distantly	facet	0	663	1
7	26	Female	Right	A	09/11/2016	13:24:38	246	TrialQuartaParte	crummy	meye	2	528	1
7	26	Female	Right	A	09/11/2016	13:24:38	247	TrialQuartaParte	pulpit	pulp	1	568	2
7	26	Female	Right	A	09/11/2016	13:24:38	248	TrialQuartaParte	illicit	ilkis	2	572	1
7	26	Female	Right	A	09/11/2016	13:24:38	249	TrialQuartaParte	booklet	text	0	522	2
7	26	Female	Right	A	09/11/2016	13:24:38	250	TrialQuartaParte	steadily	ration	0	548	2
7	26	Female	Right	A	09/11/2016	13:24:38	251	TrialQuartaParte	bearded	beard	1	1115	2
7	26	Female	Right	A	09/11/2016	13:24:38	252	TrialQuartaParte	scrooge	plich	2	861	1
7	26	Female	Right	A	09/11/2016	13:24:38	253	TrialQuartaParte	abstract	fewtu	2	603	1
7	26	Female	Right	A	09/11/2016	13:24:38	254	TrialQuartaParte	planet	plan	1	662	2
7	26	Female	Right	A	09/11/2016	13:24:38	255	TrialQuartaParte	actually	quest	0	917	1
7	26	Female	Right	A	09/11/2016	13:24:38	256	TrialQuartaParte	crooked	crook	1	1014	2
7	26	Female	Right	A	09/11/2016	13:24:38	257	TrialQuartaParte	grossly	villa	0	1105	1
7	26	Female	Right	A	09/11/2016	13:24:38	258	TrialQuartaParte	deficit	dety	2	675	1
7	26	Female	Right	A	09/11/2016	13:24:38	259	TrialQuartaParte	smelly	thuly	2	892	1
7	26	Female	Right	A	09/11/2016	13:24:38	260	TrialQuartaParte	classic	clals	2	764	1
7	26	Female	Right	A	09/11/2016	13:24:38	261	TrialQuartaParte	toaster	toast	1	599	2
7	26	Female	Right	A	09/11/2016	13:24:38	262	TrialQuartaParte	faceless	facmod	2	574	1
7	26	Female	Right	A	09/11/2016	13:24:38	263	TrialQuartaParte	composer	alarm	0	659	2
7	26	Female	Right	A	09/11/2016	13:24:38	264	TrialQuartaParte	smuggle	smug	1	777	1
7	26	Female	Right	A	09/11/2016	13:24:38	265	TrialQuartaParte	struggled	neigh	0	946	1
7	26	Female	Right	A	09/11/2016	13:24:38	266	TrialQuartaParte	gaseous	stilt	0	705	1
7	26	Female	Right	A	09/11/2016	13:24:38	267	TrialQuartaParte	upstart	pumy	2	619	1
7	26	Female	Right	A	09/11/2016	13:24:38	268	TrialQuartaParte	mosaic	mip	2	532	1
7	26	Female	Right	A	09/11/2016	13:24:38	269	TrialQuartaParte	daring	dalig	2	528	1
7	26	Female	Right	A	09/11/2016	13:24:38	270	TrialQuartaParte	sight	sigh	1	697	1
7	26	Female	Right	A	09/11/2016	13:24:38	271	TrialQuartaParte	freeze	free	1	650	2
7	26	Female	Right	A	09/11/2016	13:24:38	272	TrialQuartaParte	tributary	calin	2	631	1
7	26	Female	Right	A	09/11/2016	13:24:38	273	TrialQuartaParte	poetry	poet	1	657	2
7	26	Female	Right	A	09/11/2016	13:24:38	274	TrialQuartaParte	kinetic	kinse	2	664	1
7	26	Female	Right	A	09/11/2016	13:24:38	275	TrialQuartaParte	education	educon	2	680	1
7	26	Female	Right	A	09/11/2016	13:24:38	276	TrialQuartaParte	cranky	crony	2	545	1
7	26	Female	Right	A	09/11/2016	13:24:38	277	TrialQuartaParte	coaster	coast	1	720	2
7	26	Female	Right	A	09/11/2016	13:24:38	278	TrialQuartaParte	perhaps	again	0	603	2
7	26	Female	Right	A	09/11/2016	13:24:38	279	TrialQuartaParte	vigilant	vigan	2	773	1
7	26	Female	Right	A	09/11/2016	13:24:38	280	TrialQuartaParte	snobbish	green	0	538	2
7	26	Female	Right	A	09/11/2016	13:24:38	281	TrialQuartaParte	chilly	chill	1	1077	2
7	26	Female	Right	A	09/11/2016	13:24:38	282	TrialQuartaParte	olympic	olick	2	835	1
7	26	Female	Right	A	09/11/2016	13:24:38	283	TrialQuartaParte	haulier	halfe	2	833	1
7	26	Female	Right	A	09/11/2016	13:24:38	284	TrialQuartaParte	friar	blyr	2	487	1
7	26	Female	Right	A	09/11/2016	13:24:38	285	TrialQuartaParte	edible	esigh	2	513	1
7	26	Female	Right	A	09/11/2016	13:24:38	286	TrialQuartaParte	dialog	dial	1	656	2
7	26	Female	Right	A	09/11/2016	13:24:38	287	TrialQuartaParte	murderous	invent	0	537	2
7	26	Female	Right	A	09/11/2016	13:24:38	288	TrialQuartaParte	forceps	force	1	617	2
7	26	Female	Right	A	09/11/2016	13:24:38	289	TrialQuartaParte	simplify	fleet	0	1014	1
7	26	Female	Right	A	09/11/2016	13:24:38	290	TrialQuartaParte	addition	employ	0	1161	2
7	26	Female	Right	A	09/11/2016	13:24:38	291	TrialQuartaParte	selfless	audit	0	978	1
7	26	Female	Right	A	09/11/2016	13:24:38	292	TrialQuartaParte	mourner	mourn	1	1062	1
7	26	Female	Right	A	09/11/2016	13:24:38	293	TrialQuartaParte	lively	licey	2	572	1
7	26	Female	Right	A	09/11/2016	13:24:38	294	TrialQuartaParte	hydration	povic	2	620	1
7	26	Female	Right	A	09/11/2016	13:24:38	295	TrialQuartaParte	crikey	brize	2	842	1
7	26	Female	Right	A	09/11/2016	13:24:38	296	TrialQuartaParte	asterix	cret	2	789	1
7	26	Female	Right	A	09/11/2016	13:24:38	297	TrialQuartaParte	trolley	troll	1	652	2
7	26	Female	Right	A	09/11/2016	13:24:38	298	TrialQuartaParte	whisker	whisk	1	622	2
7	26	Female	Right	A	09/11/2016	13:24:38	299	TrialQuartaParte	power	mord	2	812	1
7	26	Female	Right	A	09/11/2016	13:24:38	300	TrialQuartaParte	snobby	snool	2	665	1
