Subject	Age	Gender	Handedness	Rotation	Data	OraStart	TrialCount	TrialType	Prime	Target	Relatedness	rt	Resp
60	34	Male	Right	B	18/09/2017	15:38:20	1	Prova	wellness	well	4	767	2
60	34	Male	Right	B	18/09/2017	15:38:20	2	Prova	homeless	home	4	738	2
60	34	Male	Right	B	18/09/2017	15:38:20	3	Prova	tricky	tricker	4	797	2
60	34	Male	Right	B	18/09/2017	15:38:20	4	Prova	character	char	4	741	1
60	34	Male	Right	B	18/09/2017	15:38:20	5	Prova	translater	pulter	4	768	1
60	34	Male	Right	B	18/09/2017	15:38:20	6	Prova2	escape	exat	4	481	2
60	34	Male	Right	B	18/09/2017	15:38:20	7	Prova2	investigator	invest	4	588	2
60	34	Male	Right	B	18/09/2017	15:38:20	8	Prova2	examiner	exam	4	704	1
60	34	Male	Right	B	18/09/2017	15:38:20	9	Prova2	topic	top	4	607	2
60	34	Male	Right	B	18/09/2017	15:38:20	1	Warmup	unpack	pack	5	404	2
60	34	Male	Right	B	18/09/2017	15:38:20	2	Warmup	tartare	tariff	5	564	1
60	34	Male	Right	B	18/09/2017	15:38:20	3	Warmup	cowrie	sturms	5	515	1
60	34	Male	Right	B	18/09/2017	15:38:20	4	Warmup	cortex	newbie	5	599	1
60	34	Male	Right	B	18/09/2017	15:38:20	5	Warmup	pullma	pulm	5	421	2
60	34	Male	Right	B	18/09/2017	15:38:20	1	TrialPrimaParte	power	mord	2	590	1
60	34	Male	Right	B	18/09/2017	15:38:20	2	TrialPrimaParte	prayer	butt	0	551	2
60	34	Male	Right	B	18/09/2017	15:38:20	3	TrialPrimaParte	reaction	react	1	532	2
60	34	Male	Right	B	18/09/2017	15:38:20	4	TrialPrimaParte	moulder	moure	2	565	2
60	34	Male	Right	B	18/09/2017	15:38:20	5	TrialPrimaParte	asterix	cret	2	548	1
60	34	Male	Right	B	18/09/2017	15:38:20	6	TrialPrimaParte	original	orive	2	530	2
60	34	Male	Right	B	18/09/2017	15:38:20	7	TrialPrimaParte	misty	stun	0	689	2
60	34	Male	Right	B	18/09/2017	15:38:20	8	TrialPrimaParte	bridal	glut	0	702	1
60	34	Male	Right	B	18/09/2017	15:38:20	9	TrialPrimaParte	plonking	pluny	2	596	1
60	34	Male	Right	B	18/09/2017	15:38:20	10	TrialPrimaParte	naughty	troll	0	650	2
60	34	Male	Right	B	18/09/2017	15:38:20	11	TrialPrimaParte	gastric	waser	2	479	1
60	34	Male	Right	B	18/09/2017	15:38:20	12	TrialPrimaParte	basilisk	basil	1	688	2
60	34	Male	Right	B	18/09/2017	15:38:20	13	TrialPrimaParte	unique	unzed	2	833	1
60	34	Male	Right	B	18/09/2017	15:38:20	14	TrialPrimaParte	employer	employ	1	545	2
60	34	Male	Right	B	18/09/2017	15:38:20	15	TrialPrimaParte	passel	turp	2	692	1
60	34	Male	Right	B	18/09/2017	15:38:20	16	TrialPrimaParte	sensuous	secly	2	804	1
60	34	Male	Right	B	18/09/2017	15:38:20	17	TrialPrimaParte	government	govern	1	898	2
60	34	Male	Right	B	18/09/2017	15:38:20	18	TrialPrimaParte	rancour	brits	2	568	1
60	34	Male	Right	B	18/09/2017	15:38:20	19	TrialPrimaParte	sudden	verty	2	636	2
60	34	Male	Right	B	18/09/2017	15:38:20	20	TrialPrimaParte	clanger	spant	2	634	1
60	34	Male	Right	B	18/09/2017	15:38:20	21	TrialPrimaParte	extract	extra	1	506	2
60	34	Male	Right	B	18/09/2017	15:38:20	22	TrialPrimaParte	twelfth	smug	0	745	1
60	34	Male	Right	B	18/09/2017	15:38:20	23	TrialPrimaParte	spindly	tact	0	597	1
60	34	Male	Right	B	18/09/2017	15:38:20	24	TrialPrimaParte	fibrosis	shuar	2	677	1
60	34	Male	Right	B	18/09/2017	15:38:20	25	TrialPrimaParte	coyness	whisk	0	722	1
60	34	Male	Right	B	18/09/2017	15:38:20	26	TrialPrimaParte	brisket	brisk	1	886	1
60	34	Male	Right	B	18/09/2017	15:38:20	27	TrialPrimaParte	leaflet	organ	0	713	2
60	34	Male	Right	B	18/09/2017	15:38:20	28	TrialPrimaParte	arsenal	arse	1	723	1
60	34	Male	Right	B	18/09/2017	15:38:20	29	TrialPrimaParte	courteous	court	1	611	1
60	34	Male	Right	B	18/09/2017	15:38:20	30	TrialPrimaParte	biscuit	bist	2	522	1
60	34	Male	Right	B	18/09/2017	15:38:20	31	TrialPrimaParte	upstart	pumy	2	387	1
60	34	Male	Right	B	18/09/2017	15:38:20	32	TrialPrimaParte	agreement	agree	1	752	1
60	34	Male	Right	B	18/09/2017	15:38:20	33	TrialPrimaParte	stroke	cligh	2	584	1
60	34	Male	Right	B	18/09/2017	15:38:20	34	TrialPrimaParte	signal	quir	2	620	1
60	34	Male	Right	B	18/09/2017	15:38:20	35	TrialPrimaParte	gifted	pulp	0	512	2
60	34	Male	Right	B	18/09/2017	15:38:20	36	TrialPrimaParte	revolutionise	sivert	2	903	2
60	34	Male	Right	B	18/09/2017	15:38:20	37	TrialPrimaParte	armoury	arwor	2	740	1
60	34	Male	Right	B	18/09/2017	15:38:20	38	TrialPrimaParte	vivacious	vicis	2	649	1
60	34	Male	Right	B	18/09/2017	15:38:20	39	TrialPrimaParte	raffle	rafel	2	925	1
60	34	Male	Right	B	18/09/2017	15:38:20	40	TrialPrimaParte	filmy	plus	0	827	2
60	34	Male	Right	B	18/09/2017	15:38:20	41	TrialPrimaParte	maximum	suyte	2	1083	2
60	34	Male	Right	B	18/09/2017	15:38:20	42	TrialPrimaParte	international	intern	1	995	2
60	34	Male	Right	B	18/09/2017	15:38:20	43	TrialPrimaParte	summit	sutty	2	1128	1
60	34	Male	Right	B	18/09/2017	15:38:20	44	TrialPrimaParte	cloudless	cloud	1	708	2
60	34	Male	Right	B	18/09/2017	15:38:20	45	TrialPrimaParte	answer	anwe	2	1009	1
60	34	Male	Right	B	18/09/2017	15:38:20	46	TrialPrimaParte	neutron	whese	2	782	1
60	34	Male	Right	B	18/09/2017	15:38:20	47	TrialPrimaParte	artistry	artist	1	598	2
60	34	Male	Right	B	18/09/2017	15:38:20	48	TrialPrimaParte	plastic	spaxe	2	683	2
60	34	Male	Right	B	18/09/2017	15:38:20	49	TrialPrimaParte	tamponade	ruffy	2	988	2
60	34	Male	Right	B	18/09/2017	15:38:20	50	TrialPrimaParte	cheaply	twin	0	1063	1
60	34	Male	Right	B	18/09/2017	15:38:20	51	TrialPrimaParte	thinker	beard	0	635	2
60	34	Male	Right	B	18/09/2017	15:38:20	52	TrialPrimaParte	gravel	flixy	2	786	1
60	34	Male	Right	B	18/09/2017	15:38:20	53	TrialPrimaParte	gently	pub	0	678	2
60	34	Male	Right	B	18/09/2017	15:38:20	54	TrialPrimaParte	linkage	flion	2	653	1
60	34	Male	Right	B	18/09/2017	15:38:20	55	TrialPrimaParte	happy	sigh	0	617	2
60	34	Male	Right	B	18/09/2017	15:38:20	56	TrialPrimaParte	sleet	slit	2	671	2
60	34	Male	Right	B	18/09/2017	15:38:20	57	TrialPrimaParte	lethal	lerd	2	773	1
60	34	Male	Right	B	18/09/2017	15:38:20	58	TrialPrimaParte	fixture	strul	2	687	2
60	34	Male	Right	B	18/09/2017	15:38:20	59	TrialPrimaParte	stampede	stamp	1	682	2
60	34	Male	Right	B	18/09/2017	15:38:20	60	TrialPrimaParte	electron	elect	1	683	2
60	34	Male	Right	B	18/09/2017	15:38:20	61	TrialPrimaParte	scanner	rast	2	874	1
60	34	Male	Right	B	18/09/2017	15:38:20	62	TrialPrimaParte	acreage	acre	1	923	1
60	34	Male	Right	B	18/09/2017	15:38:20	63	TrialPrimaParte	kinetic	kinse	2	1253	2
60	34	Male	Right	B	18/09/2017	15:38:20	64	TrialPrimaParte	leftist	bulb	0	834	2
60	34	Male	Right	B	18/09/2017	15:38:20	65	TrialPrimaParte	gaiety	harse	2	970	2
60	34	Male	Right	B	18/09/2017	15:38:20	66	TrialPrimaParte	floater	float	1	824	2
60	34	Male	Right	B	18/09/2017	15:38:20	67	TrialPrimaParte	traffic	trepy	2	959	1
60	34	Male	Right	B	18/09/2017	15:38:20	68	TrialPrimaParte	lessen	bomb	0	630	2
60	34	Male	Right	B	18/09/2017	15:38:20	69	TrialPrimaParte	muffler	coast	0	768	2
60	34	Male	Right	B	18/09/2017	15:38:20	70	TrialPrimaParte	northern	north	1	567	2
60	34	Male	Right	B	18/09/2017	15:38:20	71	TrialPrimaParte	lovers	flesh	0	915	2
60	34	Male	Right	B	18/09/2017	15:38:20	72	TrialPrimaParte	blush	blif	2	701	1
60	34	Male	Right	B	18/09/2017	15:38:20	73	TrialPrimaParte	piratical	pirent	2	898	1
60	34	Male	Right	B	18/09/2017	15:38:20	74	TrialPrimaParte	greenery	green	1	649	2
60	34	Male	Right	B	18/09/2017	15:38:20	75	TrialPrimaParte	silken	tuft	0	643	1
60	34	Male	Right	B	18/09/2017	15:38:20	76	TrialSecondaParte	crikey	brize	2	984	1
60	34	Male	Right	B	18/09/2017	15:38:20	77	TrialSecondaParte	plumage	plum	1	588	2
60	34	Male	Right	B	18/09/2017	15:38:20	78	TrialSecondaParte	education	educon	2	1020	1
60	34	Male	Right	B	18/09/2017	15:38:20	79	TrialSecondaParte	criminal	huare	2	743	1
60	34	Male	Right	B	18/09/2017	15:38:20	80	TrialSecondaParte	liquidate	liquid	1	592	2
60	34	Male	Right	B	18/09/2017	15:38:20	81	TrialSecondaParte	critical	critic	1	963	2
60	34	Male	Right	B	18/09/2017	15:38:20	82	TrialSecondaParte	against	again	1	649	2
60	34	Male	Right	B	18/09/2017	15:38:20	83	TrialSecondaParte	vainly	craft	0	958	1
60	34	Male	Right	B	18/09/2017	15:38:20	84	TrialSecondaParte	prosecution	leler	2	939	1
60	34	Male	Right	B	18/09/2017	15:38:20	85	TrialSecondaParte	illicit	ilkis	2	1145	1
60	34	Male	Right	B	18/09/2017	15:38:20	86	TrialSecondaParte	buzzard	buzz	1	721	1
60	34	Male	Right	B	18/09/2017	15:38:20	87	TrialSecondaParte	twisty	jerk	0	746	1
60	34	Male	Right	B	18/09/2017	15:38:20	88	TrialSecondaParte	postage	poth	2	720	1
60	34	Male	Right	B	18/09/2017	15:38:20	89	TrialSecondaParte	plaintiff	plain	1	678	2
60	34	Male	Right	B	18/09/2017	15:38:20	90	TrialSecondaParte	villain	villa	1	762	1
60	34	Male	Right	B	18/09/2017	15:38:20	91	TrialSecondaParte	quieten	quiet	1	692	2
60	34	Male	Right	B	18/09/2017	15:38:20	92	TrialSecondaParte	brothel	broth	1	749	1
60	34	Male	Right	B	18/09/2017	15:38:20	93	TrialSecondaParte	legendary	legend	1	709	2
60	34	Male	Right	B	18/09/2017	15:38:20	94	TrialSecondaParte	scrooge	plich	2	640	1
60	34	Male	Right	B	18/09/2017	15:38:20	95	TrialSecondaParte	highlight	gylpo	2	627	1
60	34	Male	Right	B	18/09/2017	15:38:20	96	TrialSecondaParte	buoyant	stir	0	686	1
60	34	Male	Right	B	18/09/2017	15:38:20	97	TrialSecondaParte	formal	guilt	0	585	1
60	34	Male	Right	B	18/09/2017	15:38:20	98	TrialSecondaParte	foetal	fongs	2	610	1
60	34	Male	Right	B	18/09/2017	15:38:20	99	TrialSecondaParte	vertical	verks	2	635	1
60	34	Male	Right	B	18/09/2017	15:38:20	100	TrialSecondaParte	tributary	calin	2	859	1
60	34	Male	Right	B	18/09/2017	15:38:20	101	TrialSecondaParte	polite	tind	2	547	1
60	34	Male	Right	B	18/09/2017	15:38:20	102	TrialSecondaParte	halogen	haly	2	529	1
60	34	Male	Right	B	18/09/2017	15:38:20	103	TrialSecondaParte	hydration	povic	2	528	1
60	34	Male	Right	B	18/09/2017	15:38:20	104	TrialSecondaParte	neighbour	neigh	1	513	1
60	34	Male	Right	B	18/09/2017	15:38:20	105	TrialSecondaParte	jetty	kuty	2	520	1
60	34	Male	Right	B	18/09/2017	15:38:20	106	TrialSecondaParte	weekly	rabbi	0	554	1
60	34	Male	Right	B	18/09/2017	15:38:20	107	TrialSecondaParte	country	count	1	585	1
60	34	Male	Right	B	18/09/2017	15:38:20	108	TrialSecondaParte	fishy	putt	0	624	1
60	34	Male	Right	B	18/09/2017	15:38:20	109	TrialSecondaParte	fatal	fids	2	545	1
60	34	Male	Right	B	18/09/2017	15:38:20	110	TrialSecondaParte	advisory	advock	2	616	1
60	34	Male	Right	B	18/09/2017	15:38:20	111	TrialSecondaParte	kingdom	adopt	0	479	1
60	34	Male	Right	B	18/09/2017	15:38:20	112	TrialSecondaParte	abstract	fewtu	2	601	1
60	34	Male	Right	B	18/09/2017	15:38:20	113	TrialSecondaParte	tripper	mourn	0	710	1
60	34	Male	Right	B	18/09/2017	15:38:20	114	TrialSecondaParte	decision	posig	2	597	1
60	34	Male	Right	B	18/09/2017	15:38:20	115	TrialSecondaParte	stressful	abgaid	2	680	1
60	34	Male	Right	B	18/09/2017	15:38:20	116	TrialSecondaParte	keeper	gala	0	563	1
60	34	Male	Right	B	18/09/2017	15:38:20	117	TrialSecondaParte	bourbon	boun	2	575	1
60	34	Male	Right	B	18/09/2017	15:38:20	118	TrialSecondaParte	scullery	scull	1	706	1
60	34	Male	Right	B	18/09/2017	15:38:20	119	TrialSecondaParte	opposition	nunfy	2	549	1
60	34	Male	Right	B	18/09/2017	15:38:20	120	TrialSecondaParte	hatchery	fighy	2	742	2
60	34	Male	Right	B	18/09/2017	15:38:20	121	TrialSecondaParte	hourly	snip	0	963	1
60	34	Male	Right	B	18/09/2017	15:38:20	122	TrialSecondaParte	fuselage	fuse	1	640	2
60	34	Male	Right	B	18/09/2017	15:38:20	123	TrialSecondaParte	wishful	toast	0	612	2
60	34	Male	Right	B	18/09/2017	15:38:20	124	TrialSecondaParte	watery	cream	0	520	2
60	34	Male	Right	B	18/09/2017	15:38:20	125	TrialSecondaParte	difference	difrol	2	1001	1
60	34	Male	Right	B	18/09/2017	15:38:20	126	TrialSecondaParte	skylight	skigh	2	815	2
60	34	Male	Right	B	18/09/2017	15:38:20	127	TrialSecondaParte	infantry	infant	1	683	2
60	34	Male	Right	B	18/09/2017	15:38:20	128	TrialSecondaParte	ambush	amshy	2	615	1
60	34	Male	Right	B	18/09/2017	15:38:20	129	TrialSecondaParte	safely	brand	0	591	2
60	34	Male	Right	B	18/09/2017	15:38:20	130	TrialSecondaParte	question	quest	1	639	2
60	34	Male	Right	B	18/09/2017	15:38:20	131	TrialSecondaParte	talker	claf	2	1096	1
60	34	Male	Right	B	18/09/2017	15:38:20	132	TrialSecondaParte	fleeting	fleet	1	902	1
60	34	Male	Right	B	18/09/2017	15:38:20	133	TrialSecondaParte	stilted	stilt	1	656	2
60	34	Male	Right	B	18/09/2017	15:38:20	134	TrialSecondaParte	nincompoops	ninpoo	2	771	1
60	34	Male	Right	B	18/09/2017	15:38:20	135	TrialSecondaParte	active	blood	0	695	2
60	34	Male	Right	B	18/09/2017	15:38:20	136	TrialSecondaParte	editor	plan	0	580	2
60	34	Male	Right	B	18/09/2017	15:38:20	137	TrialSecondaParte	grouse	gruf	2	659	1
60	34	Male	Right	B	18/09/2017	15:38:20	138	TrialSecondaParte	phonetic	phone	1	582	2
60	34	Male	Right	B	18/09/2017	15:38:20	139	TrialSecondaParte	airtight	aith	2	961	1
60	34	Male	Right	B	18/09/2017	15:38:20	140	TrialSecondaParte	widen	amp	0	555	1
60	34	Male	Right	B	18/09/2017	15:38:20	141	TrialSecondaParte	classic	clals	2	557	1
60	34	Male	Right	B	18/09/2017	15:38:20	142	TrialSecondaParte	colonel	colon	1	705	1
60	34	Male	Right	B	18/09/2017	15:38:20	143	TrialSecondaParte	monastery	fagor	2	699	1
60	34	Male	Right	B	18/09/2017	15:38:20	144	TrialSecondaParte	content	conly	2	1366	2
60	34	Male	Right	B	18/09/2017	15:38:20	145	TrialSecondaParte	vigilant	vigan	2	1743	1
60	34	Male	Right	B	18/09/2017	15:38:20	146	TrialSecondaParte	graphic	blamp	2	758	1
60	34	Male	Right	B	18/09/2017	15:38:20	147	TrialSecondaParte	investigate	invest	1	773	2
60	34	Male	Right	B	18/09/2017	15:38:20	148	TrialSecondaParte	thinly	golf	0	573	2
60	34	Male	Right	B	18/09/2017	15:38:20	149	TrialSecondaParte	lesser	twit	0	526	1
60	34	Male	Right	B	18/09/2017	15:38:20	150	TrialSecondaParte	facetious	facet	1	1652	1
60	34	Male	Right	B	18/09/2017	15:38:20	151	TrialTerzaParte	friar	blyr	2	654	1
60	34	Male	Right	B	18/09/2017	15:38:20	152	TrialTerzaParte	daring	dalig	2	589	1
60	34	Male	Right	B	18/09/2017	15:38:20	153	TrialTerzaParte	engage	yurd	2	532	1
60	34	Male	Right	B	18/09/2017	15:38:20	154	TrialTerzaParte	candidacy	candid	1	727	2
60	34	Male	Right	B	18/09/2017	15:38:20	155	TrialTerzaParte	adviser	flick	0	697	2
60	34	Male	Right	B	18/09/2017	15:38:20	156	TrialTerzaParte	glossary	gloss	1	586	2
60	34	Male	Right	B	18/09/2017	15:38:20	157	TrialTerzaParte	command	comma	1	857	2
60	34	Male	Right	B	18/09/2017	15:38:20	158	TrialTerzaParte	rational	ration	1	786	2
60	34	Male	Right	B	18/09/2017	15:38:20	159	TrialTerzaParte	cuffs	glad	0	597	1
60	34	Male	Right	B	18/09/2017	15:38:20	160	TrialTerzaParte	thicket	thick	1	796	1
60	34	Male	Right	B	18/09/2017	15:38:20	161	TrialTerzaParte	thorny	marsh	0	891	1
60	34	Male	Right	B	18/09/2017	15:38:20	162	TrialTerzaParte	cranky	crony	2	1302	1
60	34	Male	Right	B	18/09/2017	15:38:20	163	TrialTerzaParte	swotting	chuly	2	807	1
60	34	Male	Right	B	18/09/2017	15:38:20	164	TrialTerzaParte	trashy	rell	2	1227	1
60	34	Male	Right	B	18/09/2017	15:38:20	165	TrialTerzaParte	phoenix	blont	2	1371	1
60	34	Male	Right	B	18/09/2017	15:38:20	166	TrialTerzaParte	yearly	acid	0	642	2
60	34	Male	Right	B	18/09/2017	15:38:20	167	TrialTerzaParte	legacy	lecy	2	819	1
60	34	Male	Right	B	18/09/2017	15:38:20	168	TrialTerzaParte	scalding	scald	1	894	1
60	34	Male	Right	B	18/09/2017	15:38:20	169	TrialTerzaParte	prudish	force	0	757	2
60	34	Male	Right	B	18/09/2017	15:38:20	170	TrialTerzaParte	merrier	merks	2	1411	1
60	34	Male	Right	B	18/09/2017	15:38:20	171	TrialTerzaParte	pottage	posch	2	681	1
60	34	Male	Right	B	18/09/2017	15:38:20	172	TrialTerzaParte	appendix	append	1	1070	1
60	34	Male	Right	B	18/09/2017	15:38:20	173	TrialTerzaParte	ceramic	cerbs	2	1285	1
60	34	Male	Right	B	18/09/2017	15:38:20	174	TrialTerzaParte	veteran	venic	2	1522	1
60	34	Male	Right	B	18/09/2017	15:38:20	175	TrialTerzaParte	brutal	helm	0	1358	2
60	34	Male	Right	B	18/09/2017	15:38:20	176	TrialTerzaParte	mosaic	mip	2	930	1
60	34	Male	Right	B	18/09/2017	15:38:20	177	TrialTerzaParte	amenable	amen	1	1162	1
60	34	Male	Right	B	18/09/2017	15:38:20	178	TrialTerzaParte	oddity	squaw	0	1381	1
60	34	Male	Right	B	18/09/2017	15:38:20	179	TrialTerzaParte	dragon	dron	2	2001	-1
60	34	Male	Right	B	18/09/2017	15:38:20	180	TrialTerzaParte	tricky	shove	0	763	1
60	34	Male	Right	B	18/09/2017	15:38:20	181	TrialTerzaParte	rebound	cous	2	704	1
60	34	Male	Right	B	18/09/2017	15:38:20	182	TrialTerzaParte	tract	trep	2	557	1
60	34	Male	Right	B	18/09/2017	15:38:20	183	TrialTerzaParte	crummy	meye	2	569	1
60	34	Male	Right	B	18/09/2017	15:38:20	184	TrialTerzaParte	angelic	angel	1	673	2
60	34	Male	Right	B	18/09/2017	15:38:20	185	TrialTerzaParte	haulier	halfe	2	892	1
60	34	Male	Right	B	18/09/2017	15:38:20	186	TrialTerzaParte	portal	balp	2	695	1
60	34	Male	Right	B	18/09/2017	15:38:20	187	TrialTerzaParte	ranger	view	0	486	1
60	34	Male	Right	B	18/09/2017	15:38:20	188	TrialTerzaParte	manual	mals	2	685	1
60	34	Male	Right	B	18/09/2017	15:38:20	189	TrialTerzaParte	within	earl	0	662	2
60	34	Male	Right	B	18/09/2017	15:38:20	190	TrialTerzaParte	baronet	baron	1	777	2
60	34	Male	Right	B	18/09/2017	15:38:20	191	TrialTerzaParte	message	rosty	2	935	2
60	34	Male	Right	B	18/09/2017	15:38:20	192	TrialTerzaParte	abstain	abter	2	713	1
60	34	Male	Right	B	18/09/2017	15:38:20	193	TrialTerzaParte	finely	chill	0	625	2
60	34	Male	Right	B	18/09/2017	15:38:20	194	TrialTerzaParte	grueling	gruel	1	682	1
60	34	Male	Right	B	18/09/2017	15:38:20	195	TrialTerzaParte	socialiser	flepity	2	840	1
60	34	Male	Right	B	18/09/2017	15:38:20	196	TrialTerzaParte	discern	disc	1	720	2
60	34	Male	Right	B	18/09/2017	15:38:20	197	TrialTerzaParte	ribbon	ribed	2	685	1
60	34	Male	Right	B	18/09/2017	15:38:20	198	TrialTerzaParte	oxygenate	oxygen	1	545	2
60	34	Male	Right	B	18/09/2017	15:38:20	199	TrialTerzaParte	drunkard	drunk	1	607	2
60	34	Male	Right	B	18/09/2017	15:38:20	200	TrialTerzaParte	faceless	facmod	2	733	1
60	34	Male	Right	B	18/09/2017	15:38:20	201	TrialTerzaParte	tackler	lerf	2	829	1
60	34	Male	Right	B	18/09/2017	15:38:20	202	TrialTerzaParte	supplant	plosy	2	897	2
60	34	Male	Right	B	18/09/2017	15:38:20	203	TrialTerzaParte	analogy	anopy	2	785	1
60	34	Male	Right	B	18/09/2017	15:38:20	204	TrialTerzaParte	dreamer	dream	1	553	2
60	34	Male	Right	B	18/09/2017	15:38:20	205	TrialTerzaParte	touchy	fizz	0	639	1
60	34	Male	Right	B	18/09/2017	15:38:20	206	TrialTerzaParte	cousin	coul	2	600	2
60	34	Male	Right	B	18/09/2017	15:38:20	207	TrialTerzaParte	itchy	shun	0	732	1
60	34	Male	Right	B	18/09/2017	15:38:20	208	TrialTerzaParte	culprit	cuti	2	671	1
60	34	Male	Right	B	18/09/2017	15:38:20	209	TrialTerzaParte	bubble	glef	2	801	1
60	34	Male	Right	B	18/09/2017	15:38:20	210	TrialTerzaParte	snobby	snool	2	795	1
60	34	Male	Right	B	18/09/2017	15:38:20	211	TrialTerzaParte	reliable	blidar	2	797	1
60	34	Male	Right	B	18/09/2017	15:38:20	212	TrialTerzaParte	inventory	invent	1	679	2
60	34	Male	Right	B	18/09/2017	15:38:20	213	TrialTerzaParte	yardage	yage	2	604	1
60	34	Male	Right	B	18/09/2017	15:38:20	214	TrialTerzaParte	passant	pasks	2	513	1
60	34	Male	Right	B	18/09/2017	15:38:20	215	TrialTerzaParte	griffin	spoff	2	659	1
60	34	Male	Right	B	18/09/2017	15:38:20	216	TrialTerzaParte	firmly	heave	0	812	2
60	34	Male	Right	B	18/09/2017	15:38:20	217	TrialTerzaParte	surgeon	surge	1	674	2
60	34	Male	Right	B	18/09/2017	15:38:20	218	TrialTerzaParte	beastly	widow	0	708	2
60	34	Male	Right	B	18/09/2017	15:38:20	219	TrialTerzaParte	cookery	train	0	598	2
60	34	Male	Right	B	18/09/2017	15:38:20	220	TrialTerzaParte	fisher	fims	2	645	2
60	34	Male	Right	B	18/09/2017	15:38:20	221	TrialTerzaParte	olympic	olick	2	716	1
60	34	Male	Right	B	18/09/2017	15:38:20	222	TrialTerzaParte	lively	licey	2	1090	2
60	34	Male	Right	B	18/09/2017	15:38:20	223	TrialTerzaParte	dusty	dusy	2	627	2
60	34	Male	Right	B	18/09/2017	15:38:20	224	TrialTerzaParte	category	cagre	2	773	1
60	34	Male	Right	B	18/09/2017	15:38:20	225	TrialTerzaParte	awaken	tood	2	799	1
60	34	Male	Right	B	18/09/2017	15:38:20	226	TrialQuartaParte	audition	audit	1	1053	1
60	34	Male	Right	B	18/09/2017	15:38:20	227	TrialQuartaParte	cryptic	crypt	1	845	2
60	34	Male	Right	B	18/09/2017	15:38:20	228	TrialQuartaParte	miller	gloom	0	627	2
60	34	Male	Right	B	18/09/2017	15:38:20	229	TrialQuartaParte	downs	risk	0	845	2
60	34	Male	Right	B	18/09/2017	15:38:20	230	TrialQuartaParte	desert	dert	2	883	1
60	34	Male	Right	B	18/09/2017	15:38:20	231	TrialQuartaParte	surface	surf	1	738	2
60	34	Male	Right	B	18/09/2017	15:38:20	232	TrialQuartaParte	folder	heart	0	627	2
60	34	Male	Right	B	18/09/2017	15:38:20	233	TrialQuartaParte	gluteal	abtle	2	638	1
60	34	Male	Right	B	18/09/2017	15:38:20	234	TrialQuartaParte	really	numb	0	1019	1
60	34	Male	Right	B	18/09/2017	15:38:20	235	TrialQuartaParte	pottery	crook	0	702	1
60	34	Male	Right	B	18/09/2017	15:38:20	236	TrialQuartaParte	unspoilt	nalky	2	697	1
60	34	Male	Right	B	18/09/2017	15:38:20	237	TrialQuartaParte	angler	treat	0	2001	-1
60	34	Male	Right	B	18/09/2017	15:38:20	238	TrialQuartaParte	repertory	repty	2	739	1
60	34	Male	Right	B	18/09/2017	15:38:20	239	TrialQuartaParte	deficit	dety	2	668	1
60	34	Male	Right	B	18/09/2017	15:38:20	240	TrialQuartaParte	eruption	erupt	1	583	1
60	34	Male	Right	B	18/09/2017	15:38:20	241	TrialQuartaParte	department	depart	1	652	1
60	34	Male	Right	B	18/09/2017	15:38:20	242	TrialQuartaParte	swivel	quat	2	733	1
60	34	Male	Right	B	18/09/2017	15:38:20	243	TrialQuartaParte	damsel	dalp	2	586	1
60	34	Male	Right	B	18/09/2017	15:38:20	244	TrialQuartaParte	vengeful	cherb	2	711	1
60	34	Male	Right	B	18/09/2017	15:38:20	245	TrialQuartaParte	chatter	trump	0	568	2
60	34	Male	Right	B	18/09/2017	15:38:20	246	TrialQuartaParte	lately	dial	0	667	1
60	34	Male	Right	B	18/09/2017	15:38:20	247	TrialQuartaParte	parenthesis	parent	1	539	2
60	34	Male	Right	B	18/09/2017	15:38:20	248	TrialQuartaParte	teacher	teach	1	567	2
60	34	Male	Right	B	18/09/2017	15:38:20	249	TrialQuartaParte	roller	quart	0	1226	2
60	34	Male	Right	B	18/09/2017	15:38:20	250	TrialQuartaParte	alarming	alarm	1	603	2
60	34	Male	Right	B	18/09/2017	15:38:20	251	TrialQuartaParte	snobbery	snotty	2	793	1
60	34	Male	Right	B	18/09/2017	15:38:20	252	TrialQuartaParte	pummel	syly	2	654	1
60	34	Male	Right	B	18/09/2017	15:38:20	253	TrialQuartaParte	absence	agsel	2	601	1
60	34	Male	Right	B	18/09/2017	15:38:20	254	TrialQuartaParte	farcical	farxy	2	596	1
60	34	Male	Right	B	18/09/2017	15:38:20	255	TrialQuartaParte	genetic	genth	2	512	1
60	34	Male	Right	B	18/09/2017	15:38:20	256	TrialQuartaParte	edible	esigh	2	512	1
60	34	Male	Right	B	18/09/2017	15:38:20	257	TrialQuartaParte	ethereal	ether	1	714	1
60	34	Male	Right	B	18/09/2017	15:38:20	258	TrialQuartaParte	factual	board	0	705	2
60	34	Male	Right	B	18/09/2017	15:38:20	259	TrialQuartaParte	dysentery	ranin	2	768	2
60	34	Male	Right	B	18/09/2017	15:38:20	260	TrialQuartaParte	religious	sisby	2	616	1
60	34	Male	Right	B	18/09/2017	15:38:20	261	TrialQuartaParte	renewable	renew	1	748	1
60	34	Male	Right	B	18/09/2017	15:38:20	262	TrialQuartaParte	sandy	iron	0	680	2
60	34	Male	Right	B	18/09/2017	15:38:20	263	TrialQuartaParte	acutely	nymph	0	763	1
60	34	Male	Right	B	18/09/2017	15:38:20	264	TrialQuartaParte	frosty	sign	0	663	2
60	34	Male	Right	B	18/09/2017	15:38:20	265	TrialQuartaParte	killer	lalf	2	762	1
60	34	Male	Right	B	18/09/2017	15:38:20	266	TrialQuartaParte	smelly	thuly	2	628	1
60	34	Male	Right	B	18/09/2017	15:38:20	267	TrialQuartaParte	muffin	mufir	2	496	1
60	34	Male	Right	B	18/09/2017	15:38:20	268	TrialQuartaParte	heroic	soft	0	760	2
60	34	Male	Right	B	18/09/2017	15:38:20	269	TrialQuartaParte	feudal	arch	0	576	1
60	34	Male	Right	B	18/09/2017	15:38:20	270	TrialQuartaParte	textile	text	1	623	2
60	34	Male	Right	B	18/09/2017	15:38:20	271	TrialQuartaParte	penguin	phorb	2	675	1
60	34	Male	Right	B	18/09/2017	15:38:20	272	TrialQuartaParte	inherent	inpock	2	589	1
60	34	Male	Right	B	18/09/2017	15:38:20	273	TrialQuartaParte	dealer	poet	0	735	2
60	34	Male	Right	B	18/09/2017	15:38:20	274	TrialQuartaParte	syphilis	ruar	2	705	1
60	34	Male	Right	B	18/09/2017	15:38:20	275	TrialQuartaParte	dietary	diet	1	581	2
60	34	Male	Right	B	18/09/2017	15:38:20	276	TrialQuartaParte	others	unit	0	667	2
60	34	Male	Right	B	18/09/2017	15:38:20	277	TrialQuartaParte	utter	uls	2	674	1
60	34	Male	Right	B	18/09/2017	15:38:20	278	TrialQuartaParte	maternal	malern	2	700	1
60	34	Male	Right	B	18/09/2017	15:38:20	279	TrialQuartaParte	splinter	splint	1	761	2
60	34	Male	Right	B	18/09/2017	15:38:20	280	TrialQuartaParte	sovereign	sovign	2	574	1
60	34	Male	Right	B	18/09/2017	15:38:20	281	TrialQuartaParte	golden	free	0	657	2
60	34	Male	Right	B	18/09/2017	15:38:20	282	TrialQuartaParte	inhibitory	inhibit	1	641	1
60	34	Male	Right	B	18/09/2017	15:38:20	283	TrialQuartaParte	secretary	secret	1	661	2
60	34	Male	Right	B	18/09/2017	15:38:20	284	TrialQuartaParte	harden	filth	0	704	1
60	34	Male	Right	B	18/09/2017	15:38:20	285	TrialQuartaParte	fanatic	fanty	2	951	2
60	34	Male	Right	B	18/09/2017	15:38:20	286	TrialQuartaParte	routeing	tomed	2	602	1
60	34	Male	Right	B	18/09/2017	15:38:20	287	TrialQuartaParte	crush	bemp	2	657	1
60	34	Male	Right	B	18/09/2017	15:38:20	288	TrialQuartaParte	fabulous	smaply	2	716	1
60	34	Male	Right	B	18/09/2017	15:38:20	289	TrialQuartaParte	geisha	crove	2	660	1
60	34	Male	Right	B	18/09/2017	15:38:20	290	TrialQuartaParte	itinerary	itiner	2	621	1
60	34	Male	Right	B	18/09/2017	15:38:20	291	TrialQuartaParte	ninety	scrap	0	531	1
60	34	Male	Right	B	18/09/2017	15:38:20	292	TrialQuartaParte	paternal	siter	2	883	1
60	34	Male	Right	B	18/09/2017	15:38:20	293	TrialQuartaParte	child	sild	2	950	1
60	34	Male	Right	B	18/09/2017	15:38:20	294	TrialQuartaParte	centimetres	censar	2	581	1
60	34	Male	Right	B	18/09/2017	15:38:20	295	TrialQuartaParte	turmoil	furm	2	554	1
60	34	Male	Right	B	18/09/2017	15:38:20	296	TrialQuartaParte	demonstrate	demon	1	705	2
60	34	Male	Right	B	18/09/2017	15:38:20	297	TrialQuartaParte	fruitless	fruit	1	630	2
60	34	Male	Right	B	18/09/2017	15:38:20	298	TrialQuartaParte	stubborn	stub	1	641	1
60	34	Male	Right	B	18/09/2017	15:38:20	299	TrialQuartaParte	manly	weir	0	1048	1
60	34	Male	Right	B	18/09/2017	15:38:20	300	TrialQuartaParte	winger	pluck	0	677	1
