Subject	Age	Gender	Handedness	Rotation	Data	OraStart	TrialCount	TrialType	Prime	Target	Relatedness	rt	Resp
56	28	Female	Right	B	11/09/2017	11:20:42	1	Prova	wellness	well	4	2001	-1
56	28	Female	Right	B	11/09/2017	11:20:42	2	Prova	homeless	home	4	1251	2
56	28	Female	Right	B	11/09/2017	11:20:42	3	Prova	tricky	tricker	4	1663	2
56	28	Female	Right	B	11/09/2017	11:20:42	4	Prova	character	char	4	1716	1
56	28	Female	Right	B	11/09/2017	11:20:42	5	Prova	translater	pulter	4	1550	1
56	28	Female	Right	B	11/09/2017	11:20:42	6	Prova2	escape	exat	4	2001	-1
56	28	Female	Right	B	11/09/2017	11:20:42	7	Prova2	investigator	invest	4	2001	-1
56	28	Female	Right	B	11/09/2017	11:20:42	8	Prova2	examiner	exam	4	2001	-1
56	28	Female	Right	B	11/09/2017	11:20:42	9	Prova2	topic	top	4	445	2
56	28	Female	Right	B	11/09/2017	11:20:42	1	Warmup	unpack	pack	5	642	2
56	28	Female	Right	B	11/09/2017	11:20:42	2	Warmup	tartare	tariff	5	804	1
56	28	Female	Right	B	11/09/2017	11:20:42	3	Warmup	cowrie	sturms	5	505	2
56	28	Female	Right	B	11/09/2017	11:20:42	4	Warmup	cortex	newbie	5	617	1
56	28	Female	Right	B	11/09/2017	11:20:42	5	Warmup	pullma	pulm	5	836	1
56	28	Female	Right	B	11/09/2017	11:20:42	1	TrialPrimaParte	yardage	yage	2	976	1
56	28	Female	Right	B	11/09/2017	11:20:42	2	TrialPrimaParte	tackler	lerf	2	980	1
56	28	Female	Right	B	11/09/2017	11:20:42	3	TrialPrimaParte	fruitless	fruit	1	561	2
56	28	Female	Right	B	11/09/2017	11:20:42	4	TrialPrimaParte	bourbon	boun	2	724	2
56	28	Female	Right	B	11/09/2017	11:20:42	5	TrialPrimaParte	demonstrate	demon	1	609	2
56	28	Female	Right	B	11/09/2017	11:20:42	6	TrialPrimaParte	buoyant	stir	0	826	2
56	28	Female	Right	B	11/09/2017	11:20:42	7	TrialPrimaParte	lessen	bomb	0	646	2
56	28	Female	Right	B	11/09/2017	11:20:42	8	TrialPrimaParte	classic	clals	2	740	1
56	28	Female	Right	B	11/09/2017	11:20:42	9	TrialPrimaParte	faceless	facmod	2	1275	1
56	28	Female	Right	B	11/09/2017	11:20:42	10	TrialPrimaParte	employer	employ	1	603	2
56	28	Female	Right	B	11/09/2017	11:20:42	11	TrialPrimaParte	audition	audit	1	790	1
56	28	Female	Right	B	11/09/2017	11:20:42	12	TrialPrimaParte	appendix	append	1	817	2
56	28	Female	Right	B	11/09/2017	11:20:42	13	TrialPrimaParte	northern	north	1	569	2
56	28	Female	Right	B	11/09/2017	11:20:42	14	TrialPrimaParte	gravel	flixy	2	1085	1
56	28	Female	Right	B	11/09/2017	11:20:42	15	TrialPrimaParte	critical	critic	1	691	2
56	28	Female	Right	B	11/09/2017	11:20:42	16	TrialPrimaParte	firmly	heave	0	617	2
56	28	Female	Right	B	11/09/2017	11:20:42	17	TrialPrimaParte	kingdom	adopt	0	657	2
56	28	Female	Right	B	11/09/2017	11:20:42	18	TrialPrimaParte	tract	trep	2	637	1
56	28	Female	Right	B	11/09/2017	11:20:42	19	TrialPrimaParte	manly	weir	0	1564	2
56	28	Female	Right	B	11/09/2017	11:20:42	20	TrialPrimaParte	rebound	cous	2	711	2
56	28	Female	Right	B	11/09/2017	11:20:42	21	TrialPrimaParte	opposition	nunfy	2	669	1
56	28	Female	Right	B	11/09/2017	11:20:42	22	TrialPrimaParte	electron	elect	1	794	2
56	28	Female	Right	B	11/09/2017	11:20:42	23	TrialPrimaParte	feudal	arch	0	897	2
56	28	Female	Right	B	11/09/2017	11:20:42	24	TrialPrimaParte	ribbon	ribed	2	990	1
56	28	Female	Right	B	11/09/2017	11:20:42	25	TrialPrimaParte	heroic	soft	0	517	2
56	28	Female	Right	B	11/09/2017	11:20:42	26	TrialPrimaParte	filmy	plus	0	620	2
56	28	Female	Right	B	11/09/2017	11:20:42	27	TrialPrimaParte	against	again	1	543	2
56	28	Female	Right	B	11/09/2017	11:20:42	28	TrialPrimaParte	sleet	slit	2	903	2
56	28	Female	Right	B	11/09/2017	11:20:42	29	TrialPrimaParte	content	conly	2	788	1
56	28	Female	Right	B	11/09/2017	11:20:42	30	TrialPrimaParte	criminal	huare	2	813	1
56	28	Female	Right	B	11/09/2017	11:20:42	31	TrialPrimaParte	answer	anwe	2	769	1
56	28	Female	Right	B	11/09/2017	11:20:42	32	TrialPrimaParte	plonking	pluny	2	715	1
56	28	Female	Right	B	11/09/2017	11:20:42	33	TrialPrimaParte	illicit	ilkis	2	1098	1
56	28	Female	Right	B	11/09/2017	11:20:42	34	TrialPrimaParte	pottery	crook	0	967	1
56	28	Female	Right	B	11/09/2017	11:20:42	35	TrialPrimaParte	arsenal	arse	1	684	1
56	28	Female	Right	B	11/09/2017	11:20:42	36	TrialPrimaParte	teacher	teach	1	408	2
56	28	Female	Right	B	11/09/2017	11:20:42	37	TrialPrimaParte	dealer	poet	0	1108	1
56	28	Female	Right	B	11/09/2017	11:20:42	38	TrialPrimaParte	touchy	fizz	0	1050	2
56	28	Female	Right	B	11/09/2017	11:20:42	39	TrialPrimaParte	advisory	advock	2	631	2
56	28	Female	Right	B	11/09/2017	11:20:42	40	TrialPrimaParte	hatchery	fighy	2	1123	1
56	28	Female	Right	B	11/09/2017	11:20:42	41	TrialPrimaParte	folder	heart	0	564	2
56	28	Female	Right	B	11/09/2017	11:20:42	42	TrialPrimaParte	finely	chill	0	637	2
56	28	Female	Right	B	11/09/2017	11:20:42	43	TrialPrimaParte	amenable	amen	1	566	2
56	28	Female	Right	B	11/09/2017	11:20:42	44	TrialPrimaParte	inherent	inpock	2	673	1
56	28	Female	Right	B	11/09/2017	11:20:42	45	TrialPrimaParte	religious	sisby	2	935	1
56	28	Female	Right	B	11/09/2017	11:20:42	46	TrialPrimaParte	oddity	squaw	0	1164	1
56	28	Female	Right	B	11/09/2017	11:20:42	47	TrialPrimaParte	editor	plan	0	801	2
56	28	Female	Right	B	11/09/2017	11:20:42	48	TrialPrimaParte	angelic	angel	1	532	2
56	28	Female	Right	B	11/09/2017	11:20:42	49	TrialPrimaParte	inventory	invent	1	1118	2
56	28	Female	Right	B	11/09/2017	11:20:42	50	TrialPrimaParte	discern	disc	1	618	2
56	28	Female	Right	B	11/09/2017	11:20:42	51	TrialPrimaParte	clanger	spant	2	542	1
56	28	Female	Right	B	11/09/2017	11:20:42	52	TrialPrimaParte	skylight	skigh	2	987	1
56	28	Female	Right	B	11/09/2017	11:20:42	53	TrialPrimaParte	cousin	coul	2	486	2
56	28	Female	Right	B	11/09/2017	11:20:42	54	TrialPrimaParte	swotting	chuly	2	781	1
56	28	Female	Right	B	11/09/2017	11:20:42	55	TrialPrimaParte	smelly	thuly	2	1271	1
56	28	Female	Right	B	11/09/2017	11:20:42	56	TrialPrimaParte	tricky	shove	0	642	2
56	28	Female	Right	B	11/09/2017	11:20:42	57	TrialPrimaParte	tamponade	ruffy	2	1301	1
56	28	Female	Right	B	11/09/2017	11:20:42	58	TrialPrimaParte	griffin	spoff	2	852	2
56	28	Female	Right	B	11/09/2017	11:20:42	59	TrialPrimaParte	cheaply	twin	0	787	2
56	28	Female	Right	B	11/09/2017	11:20:42	60	TrialPrimaParte	phonetic	phone	1	575	2
56	28	Female	Right	B	11/09/2017	11:20:42	61	TrialPrimaParte	foetal	fongs	2	1106	1
56	28	Female	Right	B	11/09/2017	11:20:42	62	TrialPrimaParte	hourly	snip	0	1798	2
56	28	Female	Right	B	11/09/2017	11:20:42	63	TrialPrimaParte	coyness	whisk	0	1069	1
56	28	Female	Right	B	11/09/2017	11:20:42	64	TrialPrimaParte	plaintiff	plain	1	566	2
56	28	Female	Right	B	11/09/2017	11:20:42	65	TrialPrimaParte	vigilant	vigan	2	1483	1
56	28	Female	Right	B	11/09/2017	11:20:42	66	TrialPrimaParte	frosty	sign	0	672	2
56	28	Female	Right	B	11/09/2017	11:20:42	67	TrialPrimaParte	others	unit	0	871	2
56	28	Female	Right	B	11/09/2017	11:20:42	68	TrialPrimaParte	syphilis	ruar	2	1850	1
56	28	Female	Right	B	11/09/2017	11:20:42	69	TrialPrimaParte	ranger	view	0	598	2
56	28	Female	Right	B	11/09/2017	11:20:42	70	TrialPrimaParte	formal	guilt	0	1234	2
56	28	Female	Right	B	11/09/2017	11:20:42	71	TrialPrimaParte	vertical	verks	2	676	1
56	28	Female	Right	B	11/09/2017	11:20:42	72	TrialPrimaParte	downs	risk	0	730	2
56	28	Female	Right	B	11/09/2017	11:20:42	73	TrialPrimaParte	supplant	plosy	2	651	1
56	28	Female	Right	B	11/09/2017	11:20:42	74	TrialPrimaParte	candidacy	candid	1	624	2
56	28	Female	Right	B	11/09/2017	11:20:42	75	TrialPrimaParte	villain	villa	1	643	2
56	28	Female	Right	B	11/09/2017	11:20:42	76	TrialSecondaParte	reliable	blidar	2	656	1
56	28	Female	Right	B	11/09/2017	11:20:42	77	TrialSecondaParte	rancour	brits	2	703	1
56	28	Female	Right	B	11/09/2017	11:20:42	78	TrialSecondaParte	manual	mals	2	910	1
56	28	Female	Right	B	11/09/2017	11:20:42	79	TrialSecondaParte	lovers	flesh	0	1352	2
56	28	Female	Right	B	11/09/2017	11:20:42	80	TrialSecondaParte	fisher	fims	2	2001	-1
56	28	Female	Right	B	11/09/2017	11:20:42	81	TrialSecondaParte	passant	pasks	2	822	1
56	28	Female	Right	B	11/09/2017	11:20:42	82	TrialSecondaParte	fibrosis	shuar	2	796	1
56	28	Female	Right	B	11/09/2017	11:20:42	83	TrialSecondaParte	neighbour	neigh	1	1393	1
56	28	Female	Right	B	11/09/2017	11:20:42	84	TrialSecondaParte	vivacious	vicis	2	753	1
56	28	Female	Right	B	11/09/2017	11:20:42	85	TrialSecondaParte	education	educon	2	1890	2
56	28	Female	Right	B	11/09/2017	11:20:42	86	TrialSecondaParte	geisha	crove	2	1022	2
56	28	Female	Right	B	11/09/2017	11:20:42	87	TrialSecondaParte	absence	agsel	2	856	1
56	28	Female	Right	B	11/09/2017	11:20:42	88	TrialSecondaParte	within	earl	0	1397	2
56	28	Female	Right	B	11/09/2017	11:20:42	89	TrialSecondaParte	phoenix	blont	2	664	1
56	28	Female	Right	B	11/09/2017	11:20:42	90	TrialSecondaParte	upstart	pumy	2	802	1
56	28	Female	Right	B	11/09/2017	11:20:42	91	TrialSecondaParte	stressful	abgaid	2	1387	1
56	28	Female	Right	B	11/09/2017	11:20:42	92	TrialSecondaParte	misty	stun	0	1284	2
56	28	Female	Right	B	11/09/2017	11:20:42	93	TrialSecondaParte	merrier	merks	2	980	2
56	28	Female	Right	B	11/09/2017	11:20:42	94	TrialSecondaParte	thorny	marsh	0	1287	2
56	28	Female	Right	B	11/09/2017	11:20:42	95	TrialSecondaParte	thinly	golf	0	676	2
56	28	Female	Right	B	11/09/2017	11:20:42	96	TrialSecondaParte	vengeful	cherb	2	1016	1
56	28	Female	Right	B	11/09/2017	11:20:42	97	TrialSecondaParte	tripper	mourn	0	727	1
56	28	Female	Right	B	11/09/2017	11:20:42	98	TrialSecondaParte	drunkard	drunk	1	711	2
56	28	Female	Right	B	11/09/2017	11:20:42	99	TrialSecondaParte	linkage	flion	2	739	1
56	28	Female	Right	B	11/09/2017	11:20:42	100	TrialSecondaParte	country	count	1	814	2
56	28	Female	Right	B	11/09/2017	11:20:42	101	TrialSecondaParte	alarming	alarm	1	660	2
56	28	Female	Right	B	11/09/2017	11:20:42	102	TrialSecondaParte	trashy	rell	2	697	1
56	28	Female	Right	B	11/09/2017	11:20:42	103	TrialSecondaParte	fatal	fids	2	885	1
56	28	Female	Right	B	11/09/2017	11:20:42	104	TrialSecondaParte	abstract	fewtu	2	613	1
56	28	Female	Right	B	11/09/2017	11:20:42	105	TrialSecondaParte	routeing	tomed	2	622	1
56	28	Female	Right	B	11/09/2017	11:20:42	106	TrialSecondaParte	really	numb	0	513	2
56	28	Female	Right	B	11/09/2017	11:20:42	107	TrialSecondaParte	yearly	acid	0	464	2
56	28	Female	Right	B	11/09/2017	11:20:42	108	TrialSecondaParte	signal	quir	2	942	1
56	28	Female	Right	B	11/09/2017	11:20:42	109	TrialSecondaParte	cookery	train	0	566	2
56	28	Female	Right	B	11/09/2017	11:20:42	110	TrialSecondaParte	splinter	splint	1	1436	2
56	28	Female	Right	B	11/09/2017	11:20:42	111	TrialSecondaParte	snobby	snool	2	928	1
56	28	Female	Right	B	11/09/2017	11:20:42	112	TrialSecondaParte	killer	lalf	2	1660	1
56	28	Female	Right	B	11/09/2017	11:20:42	113	TrialSecondaParte	stubborn	stub	1	1074	2
56	28	Female	Right	B	11/09/2017	11:20:42	114	TrialSecondaParte	haulier	halfe	2	1414	1
56	28	Female	Right	B	11/09/2017	11:20:42	115	TrialSecondaParte	twisty	jerk	0	1594	1
56	28	Female	Right	B	11/09/2017	11:20:42	116	TrialSecondaParte	quieten	quiet	1	557	2
56	28	Female	Right	B	11/09/2017	11:20:42	117	TrialSecondaParte	passel	turp	2	850	1
56	28	Female	Right	B	11/09/2017	11:20:42	118	TrialSecondaParte	sovereign	sovign	2	1802	1
56	28	Female	Right	B	11/09/2017	11:20:42	119	TrialSecondaParte	eruption	erupt	1	753	2
56	28	Female	Right	B	11/09/2017	11:20:42	120	TrialSecondaParte	kinetic	kinse	2	941	1
56	28	Female	Right	B	11/09/2017	11:20:42	121	TrialSecondaParte	cryptic	crypt	1	709	2
56	28	Female	Right	B	11/09/2017	11:20:42	122	TrialSecondaParte	monastery	fagor	2	868	1
56	28	Female	Right	B	11/09/2017	11:20:42	123	TrialSecondaParte	summit	sutty	2	662	1
56	28	Female	Right	B	11/09/2017	11:20:42	124	TrialSecondaParte	fuselage	fuse	1	799	1
56	28	Female	Right	B	11/09/2017	11:20:42	125	TrialSecondaParte	naughty	troll	0	509	2
56	28	Female	Right	B	11/09/2017	11:20:42	126	TrialSecondaParte	swivel	quat	2	1142	1
56	28	Female	Right	B	11/09/2017	11:20:42	127	TrialSecondaParte	scrooge	plich	2	1451	1
56	28	Female	Right	B	11/09/2017	11:20:42	128	TrialSecondaParte	harden	filth	0	1037	1
56	28	Female	Right	B	11/09/2017	11:20:42	129	TrialSecondaParte	sudden	verty	2	1039	1
56	28	Female	Right	B	11/09/2017	11:20:42	130	TrialSecondaParte	awaken	tood	2	1587	1
56	28	Female	Right	B	11/09/2017	11:20:42	131	TrialSecondaParte	ceramic	cerbs	2	1122	2
56	28	Female	Right	B	11/09/2017	11:20:42	132	TrialSecondaParte	gastric	waser	2	788	1
56	28	Female	Right	B	11/09/2017	11:20:42	133	TrialSecondaParte	infantry	infant	1	911	2
56	28	Female	Right	B	11/09/2017	11:20:42	134	TrialSecondaParte	message	rosty	2	933	2
56	28	Female	Right	B	11/09/2017	11:20:42	135	TrialSecondaParte	scanner	rast	2	1671	1
56	28	Female	Right	B	11/09/2017	11:20:42	136	TrialSecondaParte	acreage	acre	1	1665	2
56	28	Female	Right	B	11/09/2017	11:20:42	137	TrialSecondaParte	mosaic	mip	2	1518	1
56	28	Female	Right	B	11/09/2017	11:20:42	138	TrialSecondaParte	textile	text	1	926	2
56	28	Female	Right	B	11/09/2017	11:20:42	139	TrialSecondaParte	surface	surf	1	669	2
56	28	Female	Right	B	11/09/2017	11:20:42	140	TrialSecondaParte	bridal	glut	0	857	1
56	28	Female	Right	B	11/09/2017	11:20:42	141	TrialSecondaParte	blush	blif	2	984	1
56	28	Female	Right	B	11/09/2017	11:20:42	142	TrialSecondaParte	lesser	twit	0	1482	1
56	28	Female	Right	B	11/09/2017	11:20:42	143	TrialSecondaParte	child	sild	2	2001	-1
56	28	Female	Right	B	11/09/2017	11:20:42	144	TrialSecondaParte	watery	cream	0	638	2
56	28	Female	Right	B	11/09/2017	11:20:42	145	TrialSecondaParte	hydration	povic	2	729	1
56	28	Female	Right	B	11/09/2017	11:20:42	146	TrialSecondaParte	unique	unzed	2	1014	1
56	28	Female	Right	B	11/09/2017	11:20:42	147	TrialSecondaParte	weekly	rabbi	0	824	1
56	28	Female	Right	B	11/09/2017	11:20:42	148	TrialSecondaParte	centimetres	censar	2	1823	1
56	28	Female	Right	B	11/09/2017	11:20:42	149	TrialSecondaParte	ninety	scrap	0	1515	1
56	28	Female	Right	B	11/09/2017	11:20:42	150	TrialSecondaParte	decision	posig	2	2001	-1
56	28	Female	Right	B	11/09/2017	11:20:42	151	TrialTerzaParte	keeper	gala	0	1398	1
56	28	Female	Right	B	11/09/2017	11:20:42	152	TrialTerzaParte	lively	licey	2	1258	1
56	28	Female	Right	B	11/09/2017	11:20:42	153	TrialTerzaParte	factual	board	0	784	2
56	28	Female	Right	B	11/09/2017	11:20:42	154	TrialTerzaParte	lethal	lerd	2	865	1
56	28	Female	Right	B	11/09/2017	11:20:42	155	TrialTerzaParte	power	mord	2	710	1
56	28	Female	Right	B	11/09/2017	11:20:42	156	TrialTerzaParte	thinker	beard	0	819	2
56	28	Female	Right	B	11/09/2017	11:20:42	157	TrialTerzaParte	scalding	scald	1	1270	1
56	28	Female	Right	B	11/09/2017	11:20:42	158	TrialTerzaParte	revolutionise	sivert	2	928	1
56	28	Female	Right	B	11/09/2017	11:20:42	159	TrialTerzaParte	itchy	shun	0	948	1
56	28	Female	Right	B	11/09/2017	11:20:42	160	TrialTerzaParte	snobbery	snotty	2	947	1
56	28	Female	Right	B	11/09/2017	11:20:42	161	TrialTerzaParte	genetic	genth	2	1156	1
56	28	Female	Right	B	11/09/2017	11:20:42	162	TrialTerzaParte	ethereal	ether	1	1131	1
56	28	Female	Right	B	11/09/2017	11:20:42	163	TrialTerzaParte	asterix	cret	2	989	1
56	28	Female	Right	B	11/09/2017	11:20:42	164	TrialTerzaParte	roller	quart	0	2001	-1
56	28	Female	Right	B	11/09/2017	11:20:42	165	TrialTerzaParte	acutely	nymph	0	1249	1
56	28	Female	Right	B	11/09/2017	11:20:42	166	TrialTerzaParte	ambush	amshy	2	1246	1
56	28	Female	Right	B	11/09/2017	11:20:42	167	TrialTerzaParte	command	comma	1	1025	1
56	28	Female	Right	B	11/09/2017	11:20:42	168	TrialTerzaParte	spindly	tact	0	986	1
56	28	Female	Right	B	11/09/2017	11:20:42	169	TrialTerzaParte	silken	tuft	0	877	1
56	28	Female	Right	B	11/09/2017	11:20:42	170	TrialTerzaParte	traffic	trepy	2	1300	1
56	28	Female	Right	B	11/09/2017	11:20:42	171	TrialTerzaParte	rational	ration	1	658	2
56	28	Female	Right	B	11/09/2017	11:20:42	172	TrialTerzaParte	pummel	syly	2	873	1
56	28	Female	Right	B	11/09/2017	11:20:42	173	TrialTerzaParte	dietary	diet	1	684	2
56	28	Female	Right	B	11/09/2017	11:20:42	174	TrialTerzaParte	colonel	colon	1	645	2
56	28	Female	Right	B	11/09/2017	11:20:42	175	TrialTerzaParte	vainly	craft	0	875	2
56	28	Female	Right	B	11/09/2017	11:20:42	176	TrialTerzaParte	beastly	widow	0	907	1
56	28	Female	Right	B	11/09/2017	11:20:42	177	TrialTerzaParte	moulder	moure	2	1491	2
56	28	Female	Right	B	11/09/2017	11:20:42	178	TrialTerzaParte	gluteal	abtle	2	796	1
56	28	Female	Right	B	11/09/2017	11:20:42	179	TrialTerzaParte	edible	esigh	2	839	1
56	28	Female	Right	B	11/09/2017	11:20:42	180	TrialTerzaParte	unspoilt	nalky	2	842	1
56	28	Female	Right	B	11/09/2017	11:20:42	181	TrialTerzaParte	cuffs	glad	0	910	2
56	28	Female	Right	B	11/09/2017	11:20:42	182	TrialTerzaParte	difference	difrol	2	773	1
56	28	Female	Right	B	11/09/2017	11:20:42	183	TrialTerzaParte	stilted	stilt	1	811	1
56	28	Female	Right	B	11/09/2017	11:20:42	184	TrialTerzaParte	paternal	siter	2	1432	1
56	28	Female	Right	B	11/09/2017	11:20:42	185	TrialTerzaParte	miller	gloom	0	781	1
56	28	Female	Right	B	11/09/2017	11:20:42	186	TrialTerzaParte	facetious	facet	1	1253	2
56	28	Female	Right	B	11/09/2017	11:20:42	187	TrialTerzaParte	deficit	dety	2	937	1
56	28	Female	Right	B	11/09/2017	11:20:42	188	TrialTerzaParte	stampede	stamp	1	694	2
56	28	Female	Right	B	11/09/2017	11:20:42	189	TrialTerzaParte	parenthesis	parent	1	1827	1
56	28	Female	Right	B	11/09/2017	11:20:42	190	TrialTerzaParte	polite	tind	2	1471	1
56	28	Female	Right	B	11/09/2017	11:20:42	191	TrialTerzaParte	piratical	pirent	2	1002	1
56	28	Female	Right	B	11/09/2017	11:20:42	192	TrialTerzaParte	extract	extra	1	662	2
56	28	Female	Right	B	11/09/2017	11:20:42	193	TrialTerzaParte	golden	free	0	740	2
56	28	Female	Right	B	11/09/2017	11:20:42	194	TrialTerzaParte	floater	float	1	919	2
56	28	Female	Right	B	11/09/2017	11:20:42	195	TrialTerzaParte	legendary	legend	1	535	2
56	28	Female	Right	B	11/09/2017	11:20:42	196	TrialTerzaParte	active	blood	0	1579	2
56	28	Female	Right	B	11/09/2017	11:20:42	197	TrialTerzaParte	crush	bemp	2	695	1
56	28	Female	Right	B	11/09/2017	11:20:42	198	TrialTerzaParte	jetty	kuty	2	834	1
56	28	Female	Right	B	11/09/2017	11:20:42	199	TrialTerzaParte	surgeon	surge	1	809	2
56	28	Female	Right	B	11/09/2017	11:20:42	200	TrialTerzaParte	baronet	baron	1	854	1
56	28	Female	Right	B	11/09/2017	11:20:42	201	TrialTerzaParte	happy	sigh	0	638	2
56	28	Female	Right	B	11/09/2017	11:20:42	202	TrialTerzaParte	graphic	blamp	2	1003	1
56	28	Female	Right	B	11/09/2017	11:20:42	203	TrialTerzaParte	neutron	whese	2	981	1
56	28	Female	Right	B	11/09/2017	11:20:42	204	TrialTerzaParte	abstain	abter	2	764	1
56	28	Female	Right	B	11/09/2017	11:20:42	205	TrialTerzaParte	courteous	court	1	870	1
56	28	Female	Right	B	11/09/2017	11:20:42	206	TrialTerzaParte	penguin	phorb	2	550	1
56	28	Female	Right	B	11/09/2017	11:20:42	207	TrialTerzaParte	bubble	glef	2	549	1
56	28	Female	Right	B	11/09/2017	11:20:42	208	TrialTerzaParte	engage	yurd	2	712	1
56	28	Female	Right	B	11/09/2017	11:20:42	209	TrialTerzaParte	fishy	putt	0	477	1
56	28	Female	Right	B	11/09/2017	11:20:42	210	TrialTerzaParte	grouse	gruf	2	606	1
56	28	Female	Right	B	11/09/2017	11:20:42	211	TrialTerzaParte	fixture	strul	2	552	1
56	28	Female	Right	B	11/09/2017	11:20:42	212	TrialTerzaParte	socialiser	flepity	2	563	1
56	28	Female	Right	B	11/09/2017	11:20:42	213	TrialTerzaParte	maximum	suyte	2	704	1
56	28	Female	Right	B	11/09/2017	11:20:42	214	TrialTerzaParte	tributary	calin	2	613	1
56	28	Female	Right	B	11/09/2017	11:20:42	215	TrialTerzaParte	biscuit	bist	2	626	1
56	28	Female	Right	B	11/09/2017	11:20:42	216	TrialTerzaParte	category	cagre	2	649	1
56	28	Female	Right	B	11/09/2017	11:20:42	217	TrialTerzaParte	gifted	pulp	0	1172	2
56	28	Female	Right	B	11/09/2017	11:20:42	218	TrialTerzaParte	liquidate	liquid	1	697	2
56	28	Female	Right	B	11/09/2017	11:20:42	219	TrialTerzaParte	investigate	invest	1	720	2
56	28	Female	Right	B	11/09/2017	11:20:42	220	TrialTerzaParte	inhibitory	inhibit	1	729	2
56	28	Female	Right	B	11/09/2017	11:20:42	221	TrialTerzaParte	reaction	react	1	501	2
56	28	Female	Right	B	11/09/2017	11:20:42	222	TrialTerzaParte	brothel	broth	1	1153	2
56	28	Female	Right	B	11/09/2017	11:20:42	223	TrialTerzaParte	chatter	trump	0	581	2
56	28	Female	Right	B	11/09/2017	11:20:42	224	TrialTerzaParte	wishful	toast	0	594	2
56	28	Female	Right	B	11/09/2017	11:20:42	225	TrialTerzaParte	daring	dalig	2	1050	1
56	28	Female	Right	B	11/09/2017	11:20:42	226	TrialQuartaParte	utter	uls	2	1128	1
56	28	Female	Right	B	11/09/2017	11:20:42	227	TrialQuartaParte	airtight	aith	2	822	1
56	28	Female	Right	B	11/09/2017	11:20:42	228	TrialQuartaParte	fleeting	fleet	1	679	1
56	28	Female	Right	B	11/09/2017	11:20:42	229	TrialQuartaParte	pottage	posch	2	680	1
56	28	Female	Right	B	11/09/2017	11:20:42	230	TrialQuartaParte	basilisk	basil	1	806	1
56	28	Female	Right	B	11/09/2017	11:20:42	231	TrialQuartaParte	olympic	olick	2	637	1
56	28	Female	Right	B	11/09/2017	11:20:42	232	TrialQuartaParte	agreement	agree	1	723	2
56	28	Female	Right	B	11/09/2017	11:20:42	233	TrialQuartaParte	analogy	anopy	2	778	1
56	28	Female	Right	B	11/09/2017	11:20:42	234	TrialQuartaParte	prosecution	leler	2	734	1
56	28	Female	Right	B	11/09/2017	11:20:42	235	TrialQuartaParte	fabulous	smaply	2	510	1
56	28	Female	Right	B	11/09/2017	11:20:42	236	TrialQuartaParte	stroke	cligh	2	627	1
56	28	Female	Right	B	11/09/2017	11:20:42	237	TrialQuartaParte	prayer	butt	0	771	1
56	28	Female	Right	B	11/09/2017	11:20:42	238	TrialQuartaParte	original	orive	2	878	1
56	28	Female	Right	B	11/09/2017	11:20:42	239	TrialQuartaParte	safely	brand	0	827	2
56	28	Female	Right	B	11/09/2017	11:20:42	240	TrialQuartaParte	legacy	lecy	2	1179	1
56	28	Female	Right	B	11/09/2017	11:20:42	241	TrialQuartaParte	greenery	green	1	550	2
56	28	Female	Right	B	11/09/2017	11:20:42	242	TrialQuartaParte	scullery	scull	1	735	1
56	28	Female	Right	B	11/09/2017	11:20:42	243	TrialQuartaParte	turmoil	furm	2	1040	1
56	28	Female	Right	B	11/09/2017	11:20:42	244	TrialQuartaParte	desert	dert	2	914	1
56	28	Female	Right	B	11/09/2017	11:20:42	245	TrialQuartaParte	angler	treat	0	606	2
56	28	Female	Right	B	11/09/2017	11:20:42	246	TrialQuartaParte	muffler	coast	0	778	2
56	28	Female	Right	B	11/09/2017	11:20:42	247	TrialQuartaParte	maternal	malern	2	715	1
56	28	Female	Right	B	11/09/2017	11:20:42	248	TrialQuartaParte	sandy	iron	0	628	2
56	28	Female	Right	B	11/09/2017	11:20:42	249	TrialQuartaParte	repertory	repty	2	910	1
56	28	Female	Right	B	11/09/2017	11:20:42	250	TrialQuartaParte	dreamer	dream	1	866	2
56	28	Female	Right	B	11/09/2017	11:20:42	251	TrialQuartaParte	fanatic	fanty	2	1057	2
56	28	Female	Right	B	11/09/2017	11:20:42	252	TrialQuartaParte	talker	claf	2	1545	1
56	28	Female	Right	B	11/09/2017	11:20:42	253	TrialQuartaParte	adviser	flick	0	594	2
56	28	Female	Right	B	11/09/2017	11:20:42	254	TrialQuartaParte	culprit	cuti	2	591	1
56	28	Female	Right	B	11/09/2017	11:20:42	255	TrialQuartaParte	muffin	mufir	2	1029	1
56	28	Female	Right	B	11/09/2017	11:20:42	256	TrialQuartaParte	lately	dial	0	686	1
56	28	Female	Right	B	11/09/2017	11:20:42	257	TrialQuartaParte	grueling	gruel	1	1026	1
56	28	Female	Right	B	11/09/2017	11:20:42	258	TrialQuartaParte	oxygenate	oxygen	1	721	2
56	28	Female	Right	B	11/09/2017	11:20:42	259	TrialQuartaParte	nincompoops	ninpoo	2	796	1
56	28	Female	Right	B	11/09/2017	11:20:42	260	TrialQuartaParte	widen	amp	0	811	1
56	28	Female	Right	B	11/09/2017	11:20:42	261	TrialQuartaParte	department	depart	1	767	1
56	28	Female	Right	B	11/09/2017	11:20:42	262	TrialQuartaParte	renewable	renew	1	1305	2
56	28	Female	Right	B	11/09/2017	11:20:42	263	TrialQuartaParte	farcical	farxy	2	1188	1
56	28	Female	Right	B	11/09/2017	11:20:42	264	TrialQuartaParte	winger	pluck	0	723	1
56	28	Female	Right	B	11/09/2017	11:20:42	265	TrialQuartaParte	glossary	gloss	1	1137	2
56	28	Female	Right	B	11/09/2017	11:20:42	266	TrialQuartaParte	veteran	venic	2	913	1
56	28	Female	Right	B	11/09/2017	11:20:42	267	TrialQuartaParte	sensuous	secly	2	581	1
56	28	Female	Right	B	11/09/2017	11:20:42	268	TrialQuartaParte	brutal	helm	0	613	1
56	28	Female	Right	B	11/09/2017	11:20:42	269	TrialQuartaParte	artistry	artist	1	1058	2
56	28	Female	Right	B	11/09/2017	11:20:42	270	TrialQuartaParte	friar	blyr	2	732	1
56	28	Female	Right	B	11/09/2017	11:20:42	271	TrialQuartaParte	armoury	arwor	2	665	1
56	28	Female	Right	B	11/09/2017	11:20:42	272	TrialQuartaParte	damsel	dalp	2	869	1
56	28	Female	Right	B	11/09/2017	11:20:42	273	TrialQuartaParte	leftist	bulb	0	1074	2
56	28	Female	Right	B	11/09/2017	11:20:42	274	TrialQuartaParte	crummy	meye	2	600	1
56	28	Female	Right	B	11/09/2017	11:20:42	275	TrialQuartaParte	portal	balp	2	590	1
56	28	Female	Right	B	11/09/2017	11:20:42	276	TrialQuartaParte	postage	poth	2	672	1
56	28	Female	Right	B	11/09/2017	11:20:42	277	TrialQuartaParte	dusty	dusy	2	515	1
56	28	Female	Right	B	11/09/2017	11:20:42	278	TrialQuartaParte	raffle	rafel	2	694	1
56	28	Female	Right	B	11/09/2017	11:20:42	279	TrialQuartaParte	prudish	force	0	598	2
56	28	Female	Right	B	11/09/2017	11:20:42	280	TrialQuartaParte	secretary	secret	1	759	2
56	28	Female	Right	B	11/09/2017	11:20:42	281	TrialQuartaParte	thicket	thick	1	1737	2
56	28	Female	Right	B	11/09/2017	11:20:42	282	TrialQuartaParte	government	govern	1	620	2
56	28	Female	Right	B	11/09/2017	11:20:42	283	TrialQuartaParte	question	quest	1	1673	2
56	28	Female	Right	B	11/09/2017	11:20:42	284	TrialQuartaParte	crikey	brize	2	1607	1
56	28	Female	Right	B	11/09/2017	11:20:42	285	TrialQuartaParte	gently	pub	0	1605	2
56	28	Female	Right	B	11/09/2017	11:20:42	286	TrialQuartaParte	cloudless	cloud	1	549	2
56	28	Female	Right	B	11/09/2017	11:20:42	287	TrialQuartaParte	dragon	dron	2	794	1
56	28	Female	Right	B	11/09/2017	11:20:42	288	TrialQuartaParte	leaflet	organ	0	461	2
56	28	Female	Right	B	11/09/2017	11:20:42	289	TrialQuartaParte	plumage	plum	1	2001	-1
56	28	Female	Right	B	11/09/2017	11:20:42	290	TrialQuartaParte	dysentery	ranin	2	2001	-1
56	28	Female	Right	B	11/09/2017	11:20:42	291	TrialQuartaParte	international	intern	1	2001	-1
56	28	Female	Right	B	11/09/2017	11:20:42	292	TrialQuartaParte	twelfth	smug	0	740	1
56	28	Female	Right	B	11/09/2017	11:20:42	293	TrialQuartaParte	gaiety	harse	2	461	1
56	28	Female	Right	B	11/09/2017	11:20:42	294	TrialQuartaParte	highlight	gylpo	2	502	1
56	28	Female	Right	B	11/09/2017	11:20:42	295	TrialQuartaParte	brisket	brisk	1	776	1
56	28	Female	Right	B	11/09/2017	11:20:42	296	TrialQuartaParte	buzzard	buzz	1	807	1
56	28	Female	Right	B	11/09/2017	11:20:42	297	TrialQuartaParte	cranky	crony	2	487	1
56	28	Female	Right	B	11/09/2017	11:20:42	298	TrialQuartaParte	halogen	haly	2	615	1
56	28	Female	Right	B	11/09/2017	11:20:42	299	TrialQuartaParte	plastic	spaxe	2	450	1
56	28	Female	Right	B	11/09/2017	11:20:42	300	TrialQuartaParte	itinerary	itiner	2	998	1
