Subject	Age	Gender	Handedness	Rotation	Data	OraStart	TrialCount	TrialType	Prime	Target	Relatedness	rt	Resp
53	27	Male	Right	A	15/09/2017	16:12:25	1	Prova	wellness	well	4	751	2
53	27	Male	Right	A	15/09/2017	16:12:25	2	Prova	homeless	home	4	454	2
53	27	Male	Right	A	15/09/2017	16:12:25	3	Prova	tricky	tricker	4	596	2
53	27	Male	Right	A	15/09/2017	16:12:25	4	Prova	character	char	4	656	1
53	27	Male	Right	A	15/09/2017	16:12:25	5	Prova	translater	pulter	4	585	1
53	27	Male	Right	A	15/09/2017	16:12:25	6	Prova2	escape	exat	4	812	1
53	27	Male	Right	A	15/09/2017	16:12:25	7	Prova2	investigator	invest	4	585	2
53	27	Male	Right	A	15/09/2017	16:12:25	8	Prova2	examiner	exam	4	481	2
53	27	Male	Right	A	15/09/2017	16:12:25	9	Prova2	topic	top	4	595	2
53	27	Male	Right	A	15/09/2017	16:12:25	1	Warmup	unpack	pack	5	542	2
53	27	Male	Right	A	15/09/2017	16:12:25	2	Warmup	tartare	tariff	5	683	1
53	27	Male	Right	A	15/09/2017	16:12:25	3	Warmup	cowrie	sturms	5	823	1
53	27	Male	Right	A	15/09/2017	16:12:25	4	Warmup	cortex	newbie	5	642	2
53	27	Male	Right	A	15/09/2017	16:12:25	5	Warmup	pullma	pulm	5	653	1
53	27	Male	Right	A	15/09/2017	16:12:25	1	TrialPrimaParte	toaster	toast	1	448	2
53	27	Male	Right	A	15/09/2017	16:12:25	2	TrialPrimaParte	suburban	elect	0	651	2
53	27	Male	Right	A	15/09/2017	16:12:25	3	TrialPrimaParte	shovel	shove	1	533	2
53	27	Male	Right	A	15/09/2017	16:12:25	4	TrialPrimaParte	perhaps	again	0	499	2
53	27	Male	Right	A	15/09/2017	16:12:25	5	TrialPrimaParte	simplify	fleet	0	543	1
53	27	Male	Right	A	15/09/2017	16:12:25	6	TrialPrimaParte	booklet	text	0	521	2
53	27	Male	Right	A	15/09/2017	16:12:25	7	TrialPrimaParte	bloody	blood	1	459	2
53	27	Male	Right	A	15/09/2017	16:12:25	8	TrialPrimaParte	idealism	splint	0	574	1
53	27	Male	Right	A	15/09/2017	16:12:25	9	TrialPrimaParte	chilly	chill	1	540	2
53	27	Male	Right	A	15/09/2017	16:12:25	10	TrialPrimaParte	signal	quir	2	506	1
53	27	Male	Right	A	15/09/2017	16:12:25	11	TrialPrimaParte	selfless	audit	0	742	2
53	27	Male	Right	A	15/09/2017	16:12:25	12	TrialPrimaParte	engage	yurd	2	573	1
53	27	Male	Right	A	15/09/2017	16:12:25	13	TrialPrimaParte	lively	licey	2	547	1
53	27	Male	Right	A	15/09/2017	16:12:25	14	TrialPrimaParte	grouse	gruf	2	509	1
53	27	Male	Right	A	15/09/2017	16:12:25	15	TrialPrimaParte	poetry	poet	1	470	2
53	27	Male	Right	A	15/09/2017	16:12:25	16	TrialPrimaParte	fabulous	smaply	2	623	1
53	27	Male	Right	A	15/09/2017	16:12:25	17	TrialPrimaParte	religious	sisby	2	525	1
53	27	Male	Right	A	15/09/2017	16:12:25	18	TrialPrimaParte	crooked	crook	1	590	2
53	27	Male	Right	A	15/09/2017	16:12:25	19	TrialPrimaParte	olympic	olick	2	537	1
53	27	Male	Right	A	15/09/2017	16:12:25	20	TrialPrimaParte	rebound	cous	2	493	1
53	27	Male	Right	A	15/09/2017	16:12:25	21	TrialPrimaParte	fizzle	fizz	1	453	1
53	27	Male	Right	A	15/09/2017	16:12:25	22	TrialPrimaParte	socialiser	flepity	2	573	1
53	27	Male	Right	A	15/09/2017	16:12:25	23	TrialPrimaParte	legacy	lecy	2	524	1
53	27	Male	Right	A	15/09/2017	16:12:25	24	TrialPrimaParte	loyally	buzz	0	557	2
53	27	Male	Right	A	15/09/2017	16:12:25	25	TrialPrimaParte	existent	gruel	0	576	1
53	27	Male	Right	A	15/09/2017	16:12:25	26	TrialPrimaParte	tufted	tuft	1	504	1
53	27	Male	Right	A	15/09/2017	16:12:25	27	TrialPrimaParte	clanger	spant	2	603	1
53	27	Male	Right	A	15/09/2017	16:12:25	28	TrialPrimaParte	fanatic	fanty	2	610	2
53	27	Male	Right	A	15/09/2017	16:12:25	29	TrialPrimaParte	stirrup	stir	1	627	2
53	27	Male	Right	A	15/09/2017	16:12:25	30	TrialPrimaParte	sudden	verty	2	648	1
53	27	Male	Right	A	15/09/2017	16:12:25	31	TrialPrimaParte	damsel	dalp	2	507	1
53	27	Male	Right	A	15/09/2017	16:12:25	32	TrialPrimaParte	whisker	whisk	1	606	2
53	27	Male	Right	A	15/09/2017	16:12:25	33	TrialPrimaParte	lectureship	parent	0	643	2
53	27	Male	Right	A	15/09/2017	16:12:25	34	TrialPrimaParte	blush	blif	2	601	1
53	27	Male	Right	A	15/09/2017	16:12:25	35	TrialPrimaParte	syphilis	ruar	2	500	1
53	27	Male	Right	A	15/09/2017	16:12:25	36	TrialPrimaParte	united	unit	1	630	2
53	27	Male	Right	A	15/09/2017	16:12:25	37	TrialPrimaParte	ribbon	ribed	2	609	1
53	27	Male	Right	A	15/09/2017	16:12:25	38	TrialPrimaParte	putty	putt	1	958	2
53	27	Male	Right	A	15/09/2017	16:12:25	39	TrialPrimaParte	planet	plan	1	696	2
53	27	Male	Right	A	15/09/2017	16:12:25	40	TrialPrimaParte	deficit	dety	2	568	1
53	27	Male	Right	A	15/09/2017	16:12:25	41	TrialPrimaParte	dreadful	phone	0	588	2
53	27	Male	Right	A	15/09/2017	16:12:25	42	TrialPrimaParte	turmoil	furm	2	541	1
53	27	Male	Right	A	15/09/2017	16:12:25	43	TrialPrimaParte	jetty	kuty	2	544	1
53	27	Male	Right	A	15/09/2017	16:12:25	44	TrialPrimaParte	snobby	snool	2	454	1
53	27	Male	Right	A	15/09/2017	16:12:25	45	TrialPrimaParte	polite	tind	2	604	1
53	27	Male	Right	A	15/09/2017	16:12:25	46	TrialPrimaParte	vengeful	cherb	2	507	1
53	27	Male	Right	A	15/09/2017	16:12:25	47	TrialPrimaParte	child	sild	2	489	1
53	27	Male	Right	A	15/09/2017	16:12:25	48	TrialPrimaParte	struggled	neigh	0	447	1
53	27	Male	Right	A	15/09/2017	16:12:25	49	TrialPrimaParte	talker	claf	2	477	1
53	27	Male	Right	A	15/09/2017	16:12:25	50	TrialPrimaParte	risky	risk	1	538	2
53	27	Male	Right	A	15/09/2017	16:12:25	51	TrialPrimaParte	foetal	fongs	2	514	1
53	27	Male	Right	A	15/09/2017	16:12:25	52	TrialPrimaParte	alcoholic	fruit	0	537	2
53	27	Male	Right	A	15/09/2017	16:12:25	53	TrialPrimaParte	hatchery	fighy	2	525	1
53	27	Male	Right	A	15/09/2017	16:12:25	54	TrialPrimaParte	enactment	cloud	0	509	2
53	27	Male	Right	A	15/09/2017	16:12:25	55	TrialPrimaParte	pottage	posch	2	460	1
53	27	Male	Right	A	15/09/2017	16:12:25	56	TrialPrimaParte	postage	poth	2	560	1
53	27	Male	Right	A	15/09/2017	16:12:25	57	TrialPrimaParte	forceps	force	1	474	2
53	27	Male	Right	A	15/09/2017	16:12:25	58	TrialPrimaParte	kinetic	kinse	2	496	1
53	27	Male	Right	A	15/09/2017	16:12:25	59	TrialPrimaParte	voucher	baron	0	545	1
53	27	Male	Right	A	15/09/2017	16:12:25	60	TrialPrimaParte	bulbous	bulb	1	587	2
53	27	Male	Right	A	15/09/2017	16:12:25	61	TrialPrimaParte	neutron	whese	2	536	1
53	27	Male	Right	A	15/09/2017	16:12:25	62	TrialPrimaParte	geisha	crove	2	599	1
53	27	Male	Right	A	15/09/2017	16:12:25	63	TrialPrimaParte	utter	uls	2	462	1
53	27	Male	Right	A	15/09/2017	16:12:25	64	TrialPrimaParte	vigilant	vigan	2	624	1
53	27	Male	Right	A	15/09/2017	16:12:25	65	TrialPrimaParte	dragon	dron	2	542	1
53	27	Male	Right	A	15/09/2017	16:12:25	66	TrialPrimaParte	content	conly	2	562	1
53	27	Male	Right	A	15/09/2017	16:12:25	67	TrialPrimaParte	button	butt	1	635	2
53	27	Male	Right	A	15/09/2017	16:12:25	68	TrialPrimaParte	vivacious	vicis	2	595	1
53	27	Male	Right	A	15/09/2017	16:12:25	69	TrialPrimaParte	farcical	farxy	2	469	1
53	27	Male	Right	A	15/09/2017	16:12:25	70	TrialPrimaParte	tamponade	ruffy	2	474	1
53	27	Male	Right	A	15/09/2017	16:12:25	71	TrialPrimaParte	power	mord	2	502	1
53	27	Male	Right	A	15/09/2017	16:12:25	72	TrialPrimaParte	freeze	free	1	649	2
53	27	Male	Right	A	15/09/2017	16:12:25	73	TrialPrimaParte	dweller	crypt	0	659	2
53	27	Male	Right	A	15/09/2017	16:12:25	74	TrialPrimaParte	warfare	broth	0	659	2
53	27	Male	Right	A	15/09/2017	16:12:25	75	TrialPrimaParte	palpably	amen	0	558	2
53	27	Male	Right	A	15/09/2017	16:12:25	76	TrialSecondaParte	plonking	pluny	2	827	1
53	27	Male	Right	A	15/09/2017	16:12:25	77	TrialSecondaParte	sovereign	sovign	2	547	1
53	27	Male	Right	A	15/09/2017	16:12:25	78	TrialSecondaParte	muffin	mufir	2	471	1
53	27	Male	Right	A	15/09/2017	16:12:25	79	TrialSecondaParte	marshy	marsh	1	625	2
53	27	Male	Right	A	15/09/2017	16:12:25	80	TrialSecondaParte	filthy	filth	1	896	2
53	27	Male	Right	A	15/09/2017	16:12:25	81	TrialSecondaParte	jerkin	jerk	1	525	2
53	27	Male	Right	A	15/09/2017	16:12:25	82	TrialSecondaParte	starter	disc	0	535	1
53	27	Male	Right	A	15/09/2017	16:12:25	83	TrialSecondaParte	airtight	aith	2	527	1
53	27	Male	Right	A	15/09/2017	16:12:25	84	TrialSecondaParte	rumbling	ether	0	884	1
53	27	Male	Right	A	15/09/2017	16:12:25	85	TrialSecondaParte	dysentery	ranin	2	739	1
53	27	Male	Right	A	15/09/2017	16:12:25	86	TrialSecondaParte	faceless	facmod	2	517	1
53	27	Male	Right	A	15/09/2017	16:12:25	87	TrialSecondaParte	dusty	dusy	2	667	1
53	27	Male	Right	A	15/09/2017	16:12:25	88	TrialSecondaParte	signet	sign	1	512	2
53	27	Male	Right	A	15/09/2017	16:12:25	89	TrialSecondaParte	finally	teach	0	456	2
53	27	Male	Right	A	15/09/2017	16:12:25	90	TrialSecondaParte	swivel	quat	2	700	1
53	27	Male	Right	A	15/09/2017	16:12:25	91	TrialSecondaParte	crush	bemp	2	595	1
53	27	Male	Right	A	15/09/2017	16:12:25	92	TrialSecondaParte	reliable	blidar	2	542	1
53	27	Male	Right	A	15/09/2017	16:12:25	93	TrialSecondaParte	bearded	beard	1	590	2
53	27	Male	Right	A	15/09/2017	16:12:25	94	TrialSecondaParte	trashy	rell	2	537	1
53	27	Male	Right	A	15/09/2017	16:12:25	95	TrialSecondaParte	crafty	craft	1	594	2
53	27	Male	Right	A	15/09/2017	16:12:25	96	TrialSecondaParte	abstract	fewtu	2	498	1
53	27	Male	Right	A	15/09/2017	16:12:25	97	TrialSecondaParte	ample	amp	1	653	1
53	27	Male	Right	A	15/09/2017	16:12:25	98	TrialSecondaParte	cousin	coul	2	571	1
53	27	Male	Right	A	15/09/2017	16:12:25	99	TrialSecondaParte	fixture	strul	2	489	1
53	27	Male	Right	A	15/09/2017	16:12:25	100	TrialSecondaParte	stressful	abgaid	2	564	1
53	27	Male	Right	A	15/09/2017	16:12:25	101	TrialSecondaParte	stunt	stun	1	517	1
53	27	Male	Right	A	15/09/2017	16:12:25	102	TrialSecondaParte	scrooge	plich	2	619	1
53	27	Male	Right	A	15/09/2017	16:12:25	103	TrialSecondaParte	steadily	ration	0	704	2
53	27	Male	Right	A	15/09/2017	16:12:25	104	TrialSecondaParte	galaxy	gala	1	1037	2
53	27	Male	Right	A	15/09/2017	16:12:25	105	TrialSecondaParte	education	educon	2	794	1
53	27	Male	Right	A	15/09/2017	16:12:25	106	TrialSecondaParte	coaster	coast	1	609	2
53	27	Male	Right	A	15/09/2017	16:12:25	107	TrialSecondaParte	veteran	venic	2	576	1
53	27	Male	Right	A	15/09/2017	16:12:25	108	TrialSecondaParte	pulpit	pulp	1	659	2
53	27	Male	Right	A	15/09/2017	16:12:25	109	TrialSecondaParte	bourbon	boun	2	694	1
53	27	Male	Right	A	15/09/2017	16:12:25	110	TrialSecondaParte	archer	arch	1	506	2
53	27	Male	Right	A	15/09/2017	16:12:25	111	TrialSecondaParte	vertical	verks	2	645	1
53	27	Male	Right	A	15/09/2017	16:12:25	112	TrialSecondaParte	lethal	lerd	2	706	1
53	27	Male	Right	A	15/09/2017	16:12:25	113	TrialSecondaParte	number	numb	1	595	1
53	27	Male	Right	A	15/09/2017	16:12:25	114	TrialSecondaParte	snobbery	snotty	2	661	1
53	27	Male	Right	A	15/09/2017	16:12:25	115	TrialSecondaParte	genetic	genth	2	528	1
53	27	Male	Right	A	15/09/2017	16:12:25	116	TrialSecondaParte	killer	lalf	2	562	1
53	27	Male	Right	A	15/09/2017	16:12:25	117	TrialSecondaParte	haulier	halfe	2	524	1
53	27	Male	Right	A	15/09/2017	16:12:25	118	TrialSecondaParte	developer	court	0	907	1
53	27	Male	Right	A	15/09/2017	16:12:25	119	TrialSecondaParte	asterix	cret	2	571	1
53	27	Male	Right	A	15/09/2017	16:12:25	120	TrialSecondaParte	yardage	yage	2	596	1
53	27	Male	Right	A	15/09/2017	16:12:25	121	TrialSecondaParte	absence	agsel	2	544	1
53	27	Male	Right	A	15/09/2017	16:12:25	122	TrialSecondaParte	anxiously	legend	0	516	2
53	27	Male	Right	A	15/09/2017	16:12:25	123	TrialSecondaParte	flicker	flick	1	668	2
53	27	Male	Right	A	15/09/2017	16:12:25	124	TrialSecondaParte	illicit	ilkis	2	454	1
53	27	Male	Right	A	15/09/2017	16:12:25	125	TrialSecondaParte	passant	pasks	2	502	1
53	27	Male	Right	A	15/09/2017	16:12:25	126	TrialSecondaParte	anaesthetic	invest	0	547	2
53	27	Male	Right	A	15/09/2017	16:12:25	127	TrialSecondaParte	addition	employ	0	519	2
53	27	Male	Right	A	15/09/2017	16:12:25	128	TrialSecondaParte	passel	turp	2	527	2
53	27	Male	Right	A	15/09/2017	16:12:25	129	TrialSecondaParte	stroke	cligh	2	469	1
53	27	Male	Right	A	15/09/2017	16:12:25	130	TrialSecondaParte	crikey	brize	2	473	1
53	27	Male	Right	A	15/09/2017	16:12:25	131	TrialSecondaParte	wearily	diet	0	529	2
53	27	Male	Right	A	15/09/2017	16:12:25	132	TrialSecondaParte	centimetres	censar	2	866	1
53	27	Male	Right	A	15/09/2017	16:12:25	133	TrialSecondaParte	validity	infant	0	556	2
53	27	Male	Right	A	15/09/2017	16:12:25	134	TrialSecondaParte	snobbish	green	0	525	2
53	27	Male	Right	A	15/09/2017	16:12:25	135	TrialSecondaParte	friar	blyr	2	581	1
53	27	Male	Right	A	15/09/2017	16:12:25	136	TrialSecondaParte	twinkle	twin	1	579	2
53	27	Male	Right	A	15/09/2017	16:12:25	137	TrialSecondaParte	guilty	guilt	1	659	2
53	27	Male	Right	A	15/09/2017	16:12:25	138	TrialSecondaParte	trolley	troll	1	571	2
53	27	Male	Right	A	15/09/2017	16:12:25	139	TrialSecondaParte	physical	react	0	486	2
53	27	Male	Right	A	15/09/2017	16:12:25	140	TrialSecondaParte	tackler	lerf	2	530	1
53	27	Male	Right	A	15/09/2017	16:12:25	141	TrialSecondaParte	equally	comma	0	729	2
53	27	Male	Right	A	15/09/2017	16:12:25	142	TrialSecondaParte	shunt	shun	1	745	2
53	27	Male	Right	A	15/09/2017	16:12:25	143	TrialSecondaParte	abstain	abter	2	581	1
53	27	Male	Right	A	15/09/2017	16:12:25	144	TrialSecondaParte	dialog	dial	1	538	2
53	27	Male	Right	A	15/09/2017	16:12:25	145	TrialSecondaParte	golfer	golf	1	472	2
53	27	Male	Right	A	15/09/2017	16:12:25	146	TrialSecondaParte	scrape	scrap	1	488	2
53	27	Male	Right	A	15/09/2017	16:12:25	147	TrialSecondaParte	fisher	fims	2	596	1
53	27	Male	Right	A	15/09/2017	16:12:25	148	TrialSecondaParte	mourner	mourn	1	789	2
53	27	Male	Right	A	15/09/2017	16:12:25	149	TrialSecondaParte	adopted	adopt	1	479	2
53	27	Male	Right	A	15/09/2017	16:12:25	150	TrialSecondaParte	absurdity	plain	0	435	2
53	27	Male	Right	A	15/09/2017	16:12:25	151	TrialTerzaParte	halogen	haly	2	707	1
53	27	Male	Right	A	15/09/2017	16:12:25	152	TrialTerzaParte	desert	dert	2	634	1
53	27	Male	Right	A	15/09/2017	16:12:25	153	TrialTerzaParte	sufferer	gloss	0	564	2
53	27	Male	Right	A	15/09/2017	16:12:25	154	TrialTerzaParte	boarder	board	1	439	2
53	27	Male	Right	A	15/09/2017	16:12:25	155	TrialTerzaParte	phoenix	blont	2	504	1
53	27	Male	Right	A	15/09/2017	16:12:25	156	TrialTerzaParte	upstart	pumy	2	618	1
53	27	Male	Right	A	15/09/2017	16:12:25	157	TrialTerzaParte	classic	clals	2	540	1
53	27	Male	Right	A	15/09/2017	16:12:25	158	TrialTerzaParte	raffle	rafel	2	586	1
53	27	Male	Right	A	15/09/2017	16:12:25	159	TrialTerzaParte	grossly	villa	0	643	2
53	27	Male	Right	A	15/09/2017	16:12:25	160	TrialTerzaParte	helmet	helm	1	612	2
53	27	Male	Right	A	15/09/2017	16:12:25	161	TrialTerzaParte	gaseous	stilt	0	782	1
53	27	Male	Right	A	15/09/2017	16:12:25	162	TrialTerzaParte	acidic	acid	1	598	2
53	27	Male	Right	A	15/09/2017	16:12:25	163	TrialTerzaParte	monastery	fagor	2	539	1
53	27	Male	Right	A	15/09/2017	16:12:25	164	TrialTerzaParte	itinerary	itiner	2	690	1
53	27	Male	Right	A	15/09/2017	16:12:25	165	TrialTerzaParte	mosaic	mip	2	687	1
53	27	Male	Right	A	15/09/2017	16:12:25	166	TrialTerzaParte	edible	esigh	2	599	1
53	27	Male	Right	A	15/09/2017	16:12:25	167	TrialTerzaParte	portal	balp	2	608	1
53	27	Male	Right	A	15/09/2017	16:12:25	168	TrialTerzaParte	rancour	brits	2	892	2
53	27	Male	Right	A	15/09/2017	16:12:25	169	TrialTerzaParte	merrier	merks	2	622	1
53	27	Male	Right	A	15/09/2017	16:12:25	170	TrialTerzaParte	gravel	flixy	2	580	1
53	27	Male	Right	A	15/09/2017	16:12:25	171	TrialTerzaParte	tract	trep	2	580	1
53	27	Male	Right	A	15/09/2017	16:12:25	172	TrialTerzaParte	early	earl	1	639	1
53	27	Male	Right	A	15/09/2017	16:12:25	173	TrialTerzaParte	trainee	train	1	632	2
53	27	Male	Right	A	15/09/2017	16:12:25	174	TrialTerzaParte	fibrosis	shuar	2	640	1
53	27	Male	Right	A	15/09/2017	16:12:25	175	TrialTerzaParte	summit	sutty	2	605	1
53	27	Male	Right	A	15/09/2017	16:12:25	176	TrialTerzaParte	plucky	pluck	1	765	1
53	27	Male	Right	A	15/09/2017	16:12:25	177	TrialTerzaParte	friendly	north	0	593	2
53	27	Male	Right	A	15/09/2017	16:12:25	178	TrialTerzaParte	obviously	secret	0	465	2
53	27	Male	Right	A	15/09/2017	16:12:25	179	TrialTerzaParte	production	depart	0	557	2
53	27	Male	Right	A	15/09/2017	16:12:25	180	TrialTerzaParte	composer	alarm	0	467	2
53	27	Male	Right	A	15/09/2017	16:12:25	181	TrialTerzaParte	maximum	suyte	2	518	1
53	27	Male	Right	A	15/09/2017	16:12:25	182	TrialTerzaParte	gluteal	abtle	2	590	1
53	27	Male	Right	A	15/09/2017	16:12:25	183	TrialTerzaParte	medical	surf	0	702	2
53	27	Male	Right	A	15/09/2017	16:12:25	184	TrialTerzaParte	glade	glad	1	591	2
53	27	Male	Right	A	15/09/2017	16:12:25	185	TrialTerzaParte	foundry	brisk	0	566	2
53	27	Male	Right	A	15/09/2017	16:12:25	186	TrialTerzaParte	rabbit	rabbi	1	660	1
53	27	Male	Right	A	15/09/2017	16:12:25	187	TrialTerzaParte	revolutionise	sivert	2	592	1
53	27	Male	Right	A	15/09/2017	16:12:25	188	TrialTerzaParte	manual	mals	2	560	1
53	27	Male	Right	A	15/09/2017	16:12:25	189	TrialTerzaParte	service	count	0	522	2
53	27	Male	Right	A	15/09/2017	16:12:25	190	TrialTerzaParte	instruction	demon	0	934	1
53	27	Male	Right	A	15/09/2017	16:12:25	191	TrialTerzaParte	nincompoops	ninpoo	2	580	1
53	27	Male	Right	A	15/09/2017	16:12:25	192	TrialTerzaParte	bubble	glef	2	556	1
53	27	Male	Right	A	15/09/2017	16:12:25	193	TrialTerzaParte	quartz	quart	1	563	2
53	27	Male	Right	A	15/09/2017	16:12:25	194	TrialTerzaParte	ceramic	cerbs	2	678	1
53	27	Male	Right	A	15/09/2017	16:12:25	195	TrialTerzaParte	gluten	glut	1	602	1
53	27	Male	Right	A	15/09/2017	16:12:25	196	TrialTerzaParte	mimicry	quiet	0	557	2
53	27	Male	Right	A	15/09/2017	16:12:25	197	TrialTerzaParte	criminal	huare	2	497	1
53	27	Male	Right	A	15/09/2017	16:12:25	198	TrialTerzaParte	actually	quest	0	749	2
53	27	Male	Right	A	15/09/2017	16:12:25	199	TrialTerzaParte	sight	sigh	1	542	2
53	27	Male	Right	A	15/09/2017	16:12:25	200	TrialTerzaParte	tactile	tact	1	714	2
53	27	Male	Right	A	15/09/2017	16:12:25	201	TrialTerzaParte	scruffy	thick	0	978	2
53	27	Male	Right	A	15/09/2017	16:12:25	202	TrialTerzaParte	vicarage	erupt	0	613	2
53	27	Male	Right	A	15/09/2017	16:12:25	203	TrialTerzaParte	justify	extra	0	626	2
53	27	Male	Right	A	15/09/2017	16:12:25	204	TrialTerzaParte	unique	unzed	2	557	1
53	27	Male	Right	A	15/09/2017	16:12:25	205	TrialTerzaParte	unspoilt	nalky	2	623	1
53	27	Male	Right	A	15/09/2017	16:12:25	206	TrialTerzaParte	murderous	invent	0	544	2
53	27	Male	Right	A	15/09/2017	16:12:25	207	TrialTerzaParte	believer	append	0	750	1
53	27	Male	Right	A	15/09/2017	16:12:25	208	TrialTerzaParte	answer	anwe	2	569	1
53	27	Male	Right	A	15/09/2017	16:12:25	209	TrialTerzaParte	gastric	waser	2	552	1
53	27	Male	Right	A	15/09/2017	16:12:25	210	TrialTerzaParte	piratical	pirent	2	601	1
53	27	Male	Right	A	15/09/2017	16:12:25	211	TrialTerzaParte	defector	stamp	0	508	2
53	27	Male	Right	A	15/09/2017	16:12:25	212	TrialTerzaParte	situation	govern	0	567	2
53	27	Male	Right	A	15/09/2017	16:12:25	213	TrialTerzaParte	gaiety	harse	2	532	1
53	27	Male	Right	A	15/09/2017	16:12:25	214	TrialTerzaParte	revolutionary	intern	0	554	2
53	27	Male	Right	A	15/09/2017	16:12:25	215	TrialTerzaParte	ambush	amshy	2	659	1
53	27	Male	Right	A	15/09/2017	16:12:25	216	TrialTerzaParte	paternal	siter	2	519	1
53	27	Male	Right	A	15/09/2017	16:12:25	217	TrialTerzaParte	plush	plus	1	519	1
53	27	Male	Right	A	15/09/2017	16:12:25	218	TrialTerzaParte	highlight	gylpo	2	476	1
53	27	Male	Right	A	15/09/2017	16:12:25	219	TrialTerzaParte	difference	difrol	2	451	1
53	27	Male	Right	A	15/09/2017	16:12:25	220	TrialTerzaParte	trumpet	trump	1	563	2
53	27	Male	Right	A	15/09/2017	16:12:25	221	TrialTerzaParte	daring	dalig	2	544	1
53	27	Male	Right	A	15/09/2017	16:12:25	222	TrialTerzaParte	masonry	dream	0	602	2
53	27	Male	Right	A	15/09/2017	16:12:25	223	TrialTerzaParte	novelty	surge	0	678	2
53	27	Male	Right	A	15/09/2017	16:12:25	224	TrialTerzaParte	cranky	crony	2	718	1
53	27	Male	Right	A	15/09/2017	16:12:25	225	TrialTerzaParte	culprit	cuti	2	619	1
53	27	Male	Right	A	15/09/2017	16:12:25	226	TrialQuartaParte	extremism	liquid	0	553	2
53	27	Male	Right	A	15/09/2017	16:12:25	227	TrialQuartaParte	nymphet	nymph	1	520	2
53	27	Male	Right	A	15/09/2017	16:12:25	228	TrialQuartaParte	feathery	drunk	0	485	2
53	27	Male	Right	A	15/09/2017	16:12:25	229	TrialQuartaParte	crummy	meye	2	458	1
53	27	Male	Right	A	15/09/2017	16:12:25	230	TrialQuartaParte	sleet	slit	2	697	2
53	27	Male	Right	A	15/09/2017	16:12:25	231	TrialQuartaParte	equipment	agree	0	489	2
53	27	Male	Right	A	15/09/2017	16:12:25	232	TrialQuartaParte	fossilise	oxygen	0	572	2
53	27	Male	Right	A	15/09/2017	16:12:25	233	TrialQuartaParte	public	pub	1	525	2
53	27	Male	Right	A	15/09/2017	16:12:25	234	TrialQuartaParte	epileptic	candid	0	552	2
53	27	Male	Right	A	15/09/2017	16:12:25	235	TrialQuartaParte	organic	organ	1	416	2
53	27	Male	Right	A	15/09/2017	16:12:25	236	TrialQuartaParte	inherent	inpock	2	566	1
53	27	Male	Right	A	15/09/2017	16:12:25	237	TrialQuartaParte	analogy	anopy	2	526	1
53	27	Male	Right	A	15/09/2017	16:12:25	238	TrialQuartaParte	decision	posig	2	537	1
53	27	Male	Right	A	15/09/2017	16:12:25	239	TrialQuartaParte	hydration	povic	2	460	1
53	27	Male	Right	A	15/09/2017	16:12:25	240	TrialQuartaParte	brandy	brand	1	479	2
53	27	Male	Right	A	15/09/2017	16:12:25	241	TrialQuartaParte	timidly	arse	0	536	2
53	27	Male	Right	A	15/09/2017	16:12:25	242	TrialQuartaParte	missive	float	0	474	2
53	27	Male	Right	A	15/09/2017	16:12:25	243	TrialQuartaParte	supplant	plosy	2	569	1
53	27	Male	Right	A	15/09/2017	16:12:25	244	TrialQuartaParte	narrowly	scull	0	597	1
53	27	Male	Right	A	15/09/2017	16:12:25	245	TrialQuartaParte	benignly	basil	0	1076	2
53	27	Male	Right	A	15/09/2017	16:12:25	246	TrialQuartaParte	soften	soft	1	511	2
53	27	Male	Right	A	15/09/2017	16:12:25	247	TrialQuartaParte	creamy	cream	1	517	2
53	27	Male	Right	A	15/09/2017	16:12:25	248	TrialQuartaParte	linkage	flion	2	661	1
53	27	Male	Right	A	15/09/2017	16:12:25	249	TrialQuartaParte	awaken	tood	2	813	1
53	27	Male	Right	A	15/09/2017	16:12:25	250	TrialQuartaParte	tributary	calin	2	714	1
53	27	Male	Right	A	15/09/2017	16:12:25	251	TrialQuartaParte	plastic	spaxe	2	557	1
53	27	Male	Right	A	15/09/2017	16:12:25	252	TrialQuartaParte	twitch	twit	1	642	1
53	27	Male	Right	A	15/09/2017	16:12:25	253	TrialQuartaParte	distantly	facet	0	511	1
53	27	Male	Right	A	15/09/2017	16:12:25	254	TrialQuartaParte	moulder	moure	2	491	1
53	27	Male	Right	A	15/09/2017	16:12:25	255	TrialQuartaParte	ability	colon	0	613	2
53	27	Male	Right	A	15/09/2017	16:12:25	256	TrialQuartaParte	tendency	critic	0	557	2
53	27	Male	Right	A	15/09/2017	16:12:25	257	TrialQuartaParte	maternal	malern	2	651	1
53	27	Male	Right	A	15/09/2017	16:12:25	258	TrialQuartaParte	skylight	skigh	2	498	1
53	27	Male	Right	A	15/09/2017	16:12:25	259	TrialQuartaParte	sensuous	secly	2	534	1
53	27	Male	Right	A	15/09/2017	16:12:25	260	TrialQuartaParte	treaty	treat	1	595	2
53	27	Male	Right	A	15/09/2017	16:12:25	261	TrialQuartaParte	griffin	spoff	2	560	1
53	27	Male	Right	A	15/09/2017	16:12:25	262	TrialQuartaParte	amateurish	inhibit	0	664	2
53	27	Male	Right	A	15/09/2017	16:12:25	263	TrialQuartaParte	armoury	arwor	2	557	1
53	27	Male	Right	A	15/09/2017	16:12:25	264	TrialQuartaParte	citation	fuse	0	601	2
53	27	Male	Right	A	15/09/2017	16:12:25	265	TrialQuartaParte	advisory	advock	2	632	1
53	27	Male	Right	A	15/09/2017	16:12:25	266	TrialQuartaParte	smelly	thuly	2	581	1
53	27	Male	Right	A	15/09/2017	16:12:25	267	TrialQuartaParte	scanner	rast	2	679	1
53	27	Male	Right	A	15/09/2017	16:12:25	268	TrialQuartaParte	opposition	nunfy	2	624	1
53	27	Male	Right	A	15/09/2017	16:12:25	269	TrialQuartaParte	calmness	artist	0	464	2
53	27	Male	Right	A	15/09/2017	16:12:25	270	TrialQuartaParte	repertory	repty	2	533	1
53	27	Male	Right	A	15/09/2017	16:12:25	271	TrialQuartaParte	weird	weir	1	695	1
53	27	Male	Right	A	15/09/2017	16:12:25	272	TrialQuartaParte	pummel	syly	2	526	1
53	27	Male	Right	A	15/09/2017	16:12:25	273	TrialQuartaParte	category	cagre	2	614	1
53	27	Male	Right	A	15/09/2017	16:12:25	274	TrialQuartaParte	plunder	acre	0	861	2
53	27	Male	Right	A	15/09/2017	16:12:25	275	TrialQuartaParte	watcher	angel	0	523	2
53	27	Male	Right	A	15/09/2017	16:12:25	276	TrialQuartaParte	traffic	trepy	2	614	1
53	27	Male	Right	A	15/09/2017	16:12:25	277	TrialQuartaParte	routeing	tomed	2	529	1
53	27	Male	Right	A	15/09/2017	16:12:25	278	TrialQuartaParte	penguin	phorb	2	465	1
53	27	Male	Right	A	15/09/2017	16:12:25	279	TrialQuartaParte	viewer	view	1	500	2
53	27	Male	Right	A	15/09/2017	16:12:25	280	TrialQuartaParte	smuggle	smug	1	545	2
53	27	Male	Right	A	15/09/2017	16:12:25	281	TrialQuartaParte	message	rosty	2	720	1
53	27	Male	Right	A	15/09/2017	16:12:25	282	TrialQuartaParte	graphic	blamp	2	732	1
53	27	Male	Right	A	15/09/2017	16:12:25	283	TrialQuartaParte	heaven	heave	1	531	1
53	27	Male	Right	A	15/09/2017	16:12:25	284	TrialQuartaParte	fatal	fids	2	539	1
53	27	Male	Right	A	15/09/2017	16:12:25	285	TrialQuartaParte	moisture	stub	0	527	1
53	27	Male	Right	A	15/09/2017	16:12:25	286	TrialQuartaParte	bomber	bomb	1	536	2
53	27	Male	Right	A	15/09/2017	16:12:25	287	TrialQuartaParte	swotting	chuly	2	518	1
53	27	Male	Right	A	15/09/2017	16:12:25	288	TrialQuartaParte	squawk	squaw	1	539	1
53	27	Male	Right	A	15/09/2017	16:12:25	289	TrialQuartaParte	broiler	plum	0	941	2
53	27	Male	Right	A	15/09/2017	16:12:25	290	TrialQuartaParte	fleshy	flesh	1	536	2
53	27	Male	Right	A	15/09/2017	16:12:25	291	TrialQuartaParte	jauntily	scald	0	627	1
53	27	Male	Right	A	15/09/2017	16:12:25	292	TrialQuartaParte	irony	iron	1	618	2
53	27	Male	Right	A	15/09/2017	16:12:25	293	TrialQuartaParte	original	orive	2	663	1
53	27	Male	Right	A	15/09/2017	16:12:25	294	TrialQuartaParte	hearty	heart	1	525	2
53	27	Male	Right	A	15/09/2017	16:12:25	295	TrialQuartaParte	sniper	snip	1	828	1
53	27	Male	Right	A	15/09/2017	16:12:25	296	TrialQuartaParte	widowed	widow	1	484	2
53	27	Male	Right	A	15/09/2017	16:12:25	297	TrialQuartaParte	biscuit	bist	2	613	1
53	27	Male	Right	A	15/09/2017	16:12:25	298	TrialQuartaParte	exemption	renew	0	692	2
53	27	Male	Right	A	15/09/2017	16:12:25	299	TrialQuartaParte	prosecution	leler	2	564	1
53	27	Male	Right	A	15/09/2017	16:12:25	300	TrialQuartaParte	gloomy	gloom	1	580	2
