Subject	Age	Gender	Handedness	Rotation	Data	OraStart	TrialCount	TrialType	Prime	Target	Relatedness	rt	Resp
26	22	Female	Right	B	22/11/2016	11:11:37	1	Prova	wellness	well	4	825	1
26	22	Female	Right	B	22/11/2016	11:11:37	2	Prova	homeless	home	4	497	1
26	22	Female	Right	B	22/11/2016	11:11:37	3	Prova	tricky	tricker	4	810	1
26	22	Female	Right	B	22/11/2016	11:11:37	4	Prova	character	char	4	906	2
26	22	Female	Right	B	22/11/2016	11:11:37	5	Prova	translater	pulter	4	1127	2
26	22	Female	Right	B	22/11/2016	11:11:37	6	Prova2	escape	exat	4	591	2
26	22	Female	Right	B	22/11/2016	11:11:37	7	Prova2	investigator	invest	4	695	1
26	22	Female	Right	B	22/11/2016	11:11:37	8	Prova2	examiner	exam	4	588	1
26	22	Female	Right	B	22/11/2016	11:11:37	9	Prova2	topic	top	4	579	1
26	22	Female	Right	B	22/11/2016	11:11:37	1	Warmup	unpack	pack	5	719	1
26	22	Female	Right	B	22/11/2016	11:11:37	2	Warmup	tartare	tariff	5	839	2
26	22	Female	Right	B	22/11/2016	11:11:37	3	Warmup	cowrie	sturms	5	1323	1
26	22	Female	Right	B	22/11/2016	11:11:37	4	Warmup	cortex	newbie	5	1040	2
26	22	Female	Right	B	22/11/2016	11:11:37	5	Warmup	pullma	pulm	5	1942	2
26	22	Female	Right	B	22/11/2016	11:11:37	1	TrialPrimaParte	angelic	angel	1	677	1
26	22	Female	Right	B	22/11/2016	11:11:37	2	TrialPrimaParte	cuffs	glad	0	732	1
26	22	Female	Right	B	22/11/2016	11:11:37	3	TrialPrimaParte	thicket	thick	1	890	1
26	22	Female	Right	B	22/11/2016	11:11:37	4	TrialPrimaParte	daring	dalig	2	665	2
26	22	Female	Right	B	22/11/2016	11:11:37	5	TrialPrimaParte	twisty	jerk	0	609	1
26	22	Female	Right	B	22/11/2016	11:11:37	6	TrialPrimaParte	textile	text	1	498	1
26	22	Female	Right	B	22/11/2016	11:11:37	7	TrialPrimaParte	leftist	bulb	0	1706	1
26	22	Female	Right	B	22/11/2016	11:11:37	8	TrialPrimaParte	message	rosty	2	993	2
26	22	Female	Right	B	22/11/2016	11:11:37	9	TrialPrimaParte	penguin	phorb	2	1539	2
26	22	Female	Right	B	22/11/2016	11:11:37	10	TrialPrimaParte	vengeful	cherb	2	926	2
26	22	Female	Right	B	22/11/2016	11:11:37	11	TrialPrimaParte	gently	pub	0	615	1
26	22	Female	Right	B	22/11/2016	11:11:37	12	TrialPrimaParte	skylight	skigh	2	658	2
26	22	Female	Right	B	22/11/2016	11:11:37	13	TrialPrimaParte	veteran	venic	2	1308	1
26	22	Female	Right	B	22/11/2016	11:11:37	14	TrialPrimaParte	mosaic	mip	2	754	2
26	22	Female	Right	B	22/11/2016	11:11:37	15	TrialPrimaParte	abstract	fewtu	2	967	2
26	22	Female	Right	B	22/11/2016	11:11:37	16	TrialPrimaParte	plaintiff	plain	1	597	1
26	22	Female	Right	B	22/11/2016	11:11:37	17	TrialPrimaParte	bridal	glut	0	739	2
26	22	Female	Right	B	22/11/2016	11:11:37	18	TrialPrimaParte	blush	blif	2	777	2
26	22	Female	Right	B	22/11/2016	11:11:37	19	TrialPrimaParte	ribbon	ribed	2	639	2
26	22	Female	Right	B	22/11/2016	11:11:37	20	TrialPrimaParte	sleet	slit	2	738	1
26	22	Female	Right	B	22/11/2016	11:11:37	21	TrialPrimaParte	asterix	cret	2	993	2
26	22	Female	Right	B	22/11/2016	11:11:37	22	TrialPrimaParte	candidacy	candid	1	742	1
26	22	Female	Right	B	22/11/2016	11:11:37	23	TrialPrimaParte	fanatic	fanty	2	1396	2
26	22	Female	Right	B	22/11/2016	11:11:37	24	TrialPrimaParte	fleeting	fleet	1	622	1
26	22	Female	Right	B	22/11/2016	11:11:37	25	TrialPrimaParte	category	cagre	2	753	2
26	22	Female	Right	B	22/11/2016	11:11:37	26	TrialPrimaParte	international	intern	1	874	2
26	22	Female	Right	B	22/11/2016	11:11:37	27	TrialPrimaParte	fishy	putt	0	1682	2
26	22	Female	Right	B	22/11/2016	11:11:37	28	TrialPrimaParte	keeper	gala	0	697	1
26	22	Female	Right	B	22/11/2016	11:11:37	29	TrialPrimaParte	naughty	troll	0	756	1
26	22	Female	Right	B	22/11/2016	11:11:37	30	TrialPrimaParte	fixture	strul	2	649	2
26	22	Female	Right	B	22/11/2016	11:11:37	31	TrialPrimaParte	renewable	renew	1	1553	1
26	22	Female	Right	B	22/11/2016	11:11:37	32	TrialPrimaParte	electron	elect	1	577	1
26	22	Female	Right	B	22/11/2016	11:11:37	33	TrialPrimaParte	against	again	1	526	1
26	22	Female	Right	B	22/11/2016	11:11:37	34	TrialPrimaParte	roller	quart	0	949	1
26	22	Female	Right	B	22/11/2016	11:11:37	35	TrialPrimaParte	itinerary	itiner	2	972	2
26	22	Female	Right	B	22/11/2016	11:11:37	36	TrialPrimaParte	cryptic	crypt	1	1177	1
26	22	Female	Right	B	22/11/2016	11:11:37	37	TrialPrimaParte	scrooge	plich	2	614	2
26	22	Female	Right	B	22/11/2016	11:11:37	38	TrialPrimaParte	amenable	amen	1	991	1
26	22	Female	Right	B	22/11/2016	11:11:37	39	TrialPrimaParte	discern	disc	1	670	2
26	22	Female	Right	B	22/11/2016	11:11:37	40	TrialPrimaParte	wishful	toast	0	559	1
26	22	Female	Right	B	22/11/2016	11:11:37	41	TrialPrimaParte	vigilant	vigan	2	776	2
26	22	Female	Right	B	22/11/2016	11:11:37	42	TrialPrimaParte	grueling	gruel	1	526	2
26	22	Female	Right	B	22/11/2016	11:11:37	43	TrialPrimaParte	hatchery	fighy	2	631	2
26	22	Female	Right	B	22/11/2016	11:11:37	44	TrialPrimaParte	safely	brand	0	698	1
26	22	Female	Right	B	22/11/2016	11:11:37	45	TrialPrimaParte	factual	board	0	550	1
26	22	Female	Right	B	22/11/2016	11:11:37	46	TrialPrimaParte	trashy	rell	2	566	2
26	22	Female	Right	B	22/11/2016	11:11:37	47	TrialPrimaParte	cranky	crony	2	474	2
26	22	Female	Right	B	22/11/2016	11:11:37	48	TrialPrimaParte	ninety	scrap	0	553	2
26	22	Female	Right	B	22/11/2016	11:11:37	49	TrialPrimaParte	abstain	abter	2	483	2
26	22	Female	Right	B	22/11/2016	11:11:37	50	TrialPrimaParte	highlight	gylpo	2	480	2
26	22	Female	Right	B	22/11/2016	11:11:37	51	TrialPrimaParte	passel	turp	2	541	2
26	22	Female	Right	B	22/11/2016	11:11:37	52	TrialPrimaParte	prosecution	leler	2	542	2
26	22	Female	Right	B	22/11/2016	11:11:37	53	TrialPrimaParte	leaflet	organ	0	468	1
26	22	Female	Right	B	22/11/2016	11:11:37	54	TrialPrimaParte	postage	poth	2	559	2
26	22	Female	Right	B	22/11/2016	11:11:37	55	TrialPrimaParte	religious	sisby	2	548	2
26	22	Female	Right	B	22/11/2016	11:11:37	56	TrialPrimaParte	turmoil	furm	2	571	2
26	22	Female	Right	B	22/11/2016	11:11:37	57	TrialPrimaParte	dusty	dusy	2	501	2
26	22	Female	Right	B	22/11/2016	11:11:37	58	TrialPrimaParte	inhibitory	inhibit	1	765	1
26	22	Female	Right	B	22/11/2016	11:11:37	59	TrialPrimaParte	geisha	crove	2	887	1
26	22	Female	Right	B	22/11/2016	11:11:37	60	TrialPrimaParte	gifted	pulp	0	1084	1
26	22	Female	Right	B	22/11/2016	11:11:37	61	TrialPrimaParte	smelly	thuly	2	587	2
26	22	Female	Right	B	22/11/2016	11:11:37	62	TrialPrimaParte	engage	yurd	2	757	2
26	22	Female	Right	B	22/11/2016	11:11:37	63	TrialPrimaParte	maternal	malern	2	965	2
26	22	Female	Right	B	22/11/2016	11:11:37	64	TrialPrimaParte	griffin	spoff	2	768	2
26	22	Female	Right	B	22/11/2016	11:11:37	65	TrialPrimaParte	polite	tind	2	905	1
26	22	Female	Right	B	22/11/2016	11:11:37	66	TrialPrimaParte	power	mord	2	639	2
26	22	Female	Right	B	22/11/2016	11:11:37	67	TrialPrimaParte	rational	ration	1	557	1
26	22	Female	Right	B	22/11/2016	11:11:37	68	TrialPrimaParte	vainly	craft	0	781	1
26	22	Female	Right	B	22/11/2016	11:11:37	69	TrialPrimaParte	bourbon	boun	2	895	2
26	22	Female	Right	B	22/11/2016	11:11:37	70	TrialPrimaParte	utter	uls	2	616	2
26	22	Female	Right	B	22/11/2016	11:11:37	71	TrialPrimaParte	ranger	view	0	578	1
26	22	Female	Right	B	22/11/2016	11:11:37	72	TrialPrimaParte	thorny	marsh	0	1480	1
26	22	Female	Right	B	22/11/2016	11:11:37	73	TrialPrimaParte	biscuit	bist	2	627	2
26	22	Female	Right	B	22/11/2016	11:11:37	74	TrialPrimaParte	fisher	fims	2	817	2
26	22	Female	Right	B	22/11/2016	11:11:37	75	TrialPrimaParte	tract	trep	2	538	2
26	22	Female	Right	B	22/11/2016	11:11:37	76	TrialSecondaParte	audition	audit	1	1143	1
26	22	Female	Right	B	22/11/2016	11:11:37	77	TrialSecondaParte	lovers	flesh	0	1468	1
26	22	Female	Right	B	22/11/2016	11:11:37	78	TrialSecondaParte	vertical	verks	2	1064	2
26	22	Female	Right	B	22/11/2016	11:11:37	79	TrialSecondaParte	secretary	secret	1	549	1
26	22	Female	Right	B	22/11/2016	11:11:37	80	TrialSecondaParte	upstart	pumy	2	634	2
26	22	Female	Right	B	22/11/2016	11:11:37	81	TrialSecondaParte	child	sild	2	706	2
26	22	Female	Right	B	22/11/2016	11:11:37	82	TrialSecondaParte	reaction	react	1	718	1
26	22	Female	Right	B	22/11/2016	11:11:37	83	TrialSecondaParte	syphilis	ruar	2	539	2
26	22	Female	Right	B	22/11/2016	11:11:37	84	TrialSecondaParte	hourly	snip	0	518	2
26	22	Female	Right	B	22/11/2016	11:11:37	85	TrialSecondaParte	piratical	pirent	2	638	2
26	22	Female	Right	B	22/11/2016	11:11:37	86	TrialSecondaParte	swivel	quat	2	780	2
26	22	Female	Right	B	22/11/2016	11:11:37	87	TrialSecondaParte	linkage	flion	2	633	2
26	22	Female	Right	B	22/11/2016	11:11:37	88	TrialSecondaParte	graphic	blamp	2	491	2
26	22	Female	Right	B	22/11/2016	11:11:37	89	TrialSecondaParte	prudish	force	0	694	1
26	22	Female	Right	B	22/11/2016	11:11:37	90	TrialSecondaParte	cousin	coul	2	634	2
26	22	Female	Right	B	22/11/2016	11:11:37	91	TrialSecondaParte	scalding	scald	1	635	2
26	22	Female	Right	B	22/11/2016	11:11:37	92	TrialSecondaParte	stilted	stilt	1	561	2
26	22	Female	Right	B	22/11/2016	11:11:37	93	TrialSecondaParte	gastric	waser	2	535	2
26	22	Female	Right	B	22/11/2016	11:11:37	94	TrialSecondaParte	quieten	quiet	1	574	1
26	22	Female	Right	B	22/11/2016	11:11:37	95	TrialSecondaParte	filmy	plus	0	829	2
26	22	Female	Right	B	22/11/2016	11:11:37	96	TrialSecondaParte	ceramic	cerbs	2	541	2
26	22	Female	Right	B	22/11/2016	11:11:37	97	TrialSecondaParte	fibrosis	shuar	2	603	2
26	22	Female	Right	B	22/11/2016	11:11:37	98	TrialSecondaParte	dreamer	dream	1	524	1
26	22	Female	Right	B	22/11/2016	11:11:37	99	TrialSecondaParte	golden	free	0	551	1
26	22	Female	Right	B	22/11/2016	11:11:37	100	TrialSecondaParte	stressful	abgaid	2	749	2
26	22	Female	Right	B	22/11/2016	11:11:37	101	TrialSecondaParte	acreage	acre	1	541	2
26	22	Female	Right	B	22/11/2016	11:11:37	102	TrialSecondaParte	fruitless	fruit	1	502	1
26	22	Female	Right	B	22/11/2016	11:11:37	103	TrialSecondaParte	tackler	lerf	2	551	2
26	22	Female	Right	B	22/11/2016	11:11:37	104	TrialSecondaParte	foetal	fongs	2	465	2
26	22	Female	Right	B	22/11/2016	11:11:37	105	TrialSecondaParte	original	orive	2	515	2
26	22	Female	Right	B	22/11/2016	11:11:37	106	TrialSecondaParte	investigate	invest	1	556	1
26	22	Female	Right	B	22/11/2016	11:11:37	107	TrialSecondaParte	crummy	meye	2	614	2
26	22	Female	Right	B	22/11/2016	11:11:37	108	TrialSecondaParte	weekly	rabbi	0	479	2
26	22	Female	Right	B	22/11/2016	11:11:37	109	TrialSecondaParte	genetic	genth	2	828	2
26	22	Female	Right	B	22/11/2016	11:11:37	110	TrialSecondaParte	frosty	sign	0	566	1
26	22	Female	Right	B	22/11/2016	11:11:37	111	TrialSecondaParte	courteous	court	1	616	1
26	22	Female	Right	B	22/11/2016	11:11:37	112	TrialSecondaParte	crikey	brize	2	725	2
26	22	Female	Right	B	22/11/2016	11:11:37	113	TrialSecondaParte	neutron	whese	2	1434	2
26	22	Female	Right	B	22/11/2016	11:11:37	114	TrialSecondaParte	tripper	mourn	0	687	2
26	22	Female	Right	B	22/11/2016	11:11:37	115	TrialSecondaParte	artistry	artist	1	500	1
26	22	Female	Right	B	22/11/2016	11:11:37	116	TrialSecondaParte	gravel	flixy	2	903	1
26	22	Female	Right	B	22/11/2016	11:11:37	117	TrialSecondaParte	oxygenate	oxygen	1	704	1
26	22	Female	Right	B	22/11/2016	11:11:37	118	TrialSecondaParte	hydration	povic	2	565	2
26	22	Female	Right	B	22/11/2016	11:11:37	119	TrialSecondaParte	northern	north	1	516	1
26	22	Female	Right	B	22/11/2016	11:11:37	120	TrialSecondaParte	dealer	poet	0	570	1
26	22	Female	Right	B	22/11/2016	11:11:37	121	TrialSecondaParte	stampede	stamp	1	676	1
26	22	Female	Right	B	22/11/2016	11:11:37	122	TrialSecondaParte	olympic	olick	2	698	2
26	22	Female	Right	B	22/11/2016	11:11:37	123	TrialSecondaParte	answer	anwe	2	576	2
26	22	Female	Right	B	22/11/2016	11:11:37	124	TrialSecondaParte	portal	balp	2	500	2
26	22	Female	Right	B	22/11/2016	11:11:37	125	TrialSecondaParte	kinetic	kinse	2	524	2
26	22	Female	Right	B	22/11/2016	11:11:37	126	TrialSecondaParte	scullery	scull	1	439	2
26	22	Female	Right	B	22/11/2016	11:11:37	127	TrialSecondaParte	downs	risk	0	584	1
26	22	Female	Right	B	22/11/2016	11:11:37	128	TrialSecondaParte	talker	claf	2	524	2
26	22	Female	Right	B	22/11/2016	11:11:37	129	TrialSecondaParte	others	unit	0	582	1
26	22	Female	Right	B	22/11/2016	11:11:37	130	TrialSecondaParte	ethereal	ether	1	713	1
26	22	Female	Right	B	22/11/2016	11:11:37	131	TrialSecondaParte	snobby	snool	2	553	2
26	22	Female	Right	B	22/11/2016	11:11:37	132	TrialSecondaParte	centimetres	censar	2	1119	2
26	22	Female	Right	B	22/11/2016	11:11:37	133	TrialSecondaParte	greenery	green	1	497	1
26	22	Female	Right	B	22/11/2016	11:11:37	134	TrialSecondaParte	phoenix	blont	2	664	2
26	22	Female	Right	B	22/11/2016	11:11:37	135	TrialSecondaParte	edible	esigh	2	653	2
26	22	Female	Right	B	22/11/2016	11:11:37	136	TrialSecondaParte	plastic	spaxe	2	742	2
26	22	Female	Right	B	22/11/2016	11:11:37	137	TrialSecondaParte	education	educon	2	702	2
26	22	Female	Right	B	22/11/2016	11:11:37	138	TrialSecondaParte	department	depart	1	761	1
26	22	Female	Right	B	22/11/2016	11:11:37	139	TrialSecondaParte	infantry	infant	1	613	1
26	22	Female	Right	B	22/11/2016	11:11:37	140	TrialSecondaParte	pottery	crook	0	577	2
26	22	Female	Right	B	22/11/2016	11:11:37	141	TrialSecondaParte	adviser	flick	0	623	1
26	22	Female	Right	B	22/11/2016	11:11:37	142	TrialSecondaParte	inherent	inpock	2	547	2
26	22	Female	Right	B	22/11/2016	11:11:37	143	TrialSecondaParte	liquidate	liquid	1	692	1
26	22	Female	Right	B	22/11/2016	11:11:37	144	TrialSecondaParte	kingdom	adopt	0	744	1
26	22	Female	Right	B	22/11/2016	11:11:37	145	TrialSecondaParte	miller	gloom	0	681	2
26	22	Female	Right	B	22/11/2016	11:11:37	146	TrialSecondaParte	damsel	dalp	2	588	2
26	22	Female	Right	B	22/11/2016	11:11:37	147	TrialSecondaParte	fuselage	fuse	1	1162	1
26	22	Female	Right	B	22/11/2016	11:11:37	148	TrialSecondaParte	passant	pasks	2	552	2
26	22	Female	Right	B	22/11/2016	11:11:37	149	TrialSecondaParte	manly	weir	0	628	2
26	22	Female	Right	B	22/11/2016	11:11:37	150	TrialSecondaParte	itchy	shun	0	520	2
26	22	Female	Right	B	22/11/2016	11:11:37	151	TrialTerzaParte	haulier	halfe	2	775	2
26	22	Female	Right	B	22/11/2016	11:11:37	152	TrialTerzaParte	buoyant	stir	0	580	2
26	22	Female	Right	B	22/11/2016	11:11:37	153	TrialTerzaParte	beastly	widow	0	820	1
26	22	Female	Right	B	22/11/2016	11:11:37	154	TrialTerzaParte	killer	lalf	2	701	2
26	22	Female	Right	B	22/11/2016	11:11:37	155	TrialTerzaParte	yearly	acid	0	610	1
26	22	Female	Right	B	22/11/2016	11:11:37	156	TrialTerzaParte	jetty	kuty	2	556	2
26	22	Female	Right	B	22/11/2016	11:11:37	157	TrialTerzaParte	grouse	gruf	2	446	2
26	22	Female	Right	B	22/11/2016	11:11:37	158	TrialTerzaParte	coyness	whisk	0	636	2
26	22	Female	Right	B	22/11/2016	11:11:37	159	TrialTerzaParte	active	blood	0	631	1
26	22	Female	Right	B	22/11/2016	11:11:37	160	TrialTerzaParte	buzzard	buzz	1	519	2
26	22	Female	Right	B	22/11/2016	11:11:37	161	TrialTerzaParte	oddity	squaw	0	703	2
26	22	Female	Right	B	22/11/2016	11:11:37	162	TrialTerzaParte	critical	critic	1	613	1
26	22	Female	Right	B	22/11/2016	11:11:37	163	TrialTerzaParte	absence	agsel	2	706	2
26	22	Female	Right	B	22/11/2016	11:11:37	164	TrialTerzaParte	silken	tuft	0	533	2
26	22	Female	Right	B	22/11/2016	11:11:37	165	TrialTerzaParte	raffle	rafel	2	443	2
26	22	Female	Right	B	22/11/2016	11:11:37	166	TrialTerzaParte	extract	extra	1	1026	1
26	22	Female	Right	B	22/11/2016	11:11:37	167	TrialTerzaParte	repertory	repty	2	534	2
26	22	Female	Right	B	22/11/2016	11:11:37	168	TrialTerzaParte	cookery	train	0	598	1
26	22	Female	Right	B	22/11/2016	11:11:37	169	TrialTerzaParte	unique	unzed	2	454	2
26	22	Female	Right	B	22/11/2016	11:11:37	170	TrialTerzaParte	analogy	anopy	2	686	2
26	22	Female	Right	B	22/11/2016	11:11:37	171	TrialTerzaParte	merrier	merks	2	458	2
26	22	Female	Right	B	22/11/2016	11:11:37	172	TrialTerzaParte	airtight	aith	2	500	2
26	22	Female	Right	B	22/11/2016	11:11:37	173	TrialTerzaParte	plumage	plum	1	907	2
26	22	Female	Right	B	22/11/2016	11:11:37	174	TrialTerzaParte	culprit	cuti	2	579	2
26	22	Female	Right	B	22/11/2016	11:11:37	175	TrialTerzaParte	villain	villa	1	537	2
26	22	Female	Right	B	22/11/2016	11:11:37	176	TrialTerzaParte	editor	plan	0	520	1
26	22	Female	Right	B	22/11/2016	11:11:37	177	TrialTerzaParte	colonel	colon	1	764	1
26	22	Female	Right	B	22/11/2016	11:11:37	178	TrialTerzaParte	country	count	1	567	1
26	22	Female	Right	B	22/11/2016	11:11:37	179	TrialTerzaParte	angler	treat	0	588	1
26	22	Female	Right	B	22/11/2016	11:11:37	180	TrialTerzaParte	twelfth	smug	0	503	2
26	22	Female	Right	B	22/11/2016	11:11:37	181	TrialTerzaParte	lessen	bomb	0	686	1
26	22	Female	Right	B	22/11/2016	11:11:37	182	TrialTerzaParte	legacy	lecy	2	930	2
26	22	Female	Right	B	22/11/2016	11:11:37	183	TrialTerzaParte	plonking	pluny	2	617	2
26	22	Female	Right	B	22/11/2016	11:11:37	184	TrialTerzaParte	advisory	advock	2	651	2
26	22	Female	Right	B	22/11/2016	11:11:37	185	TrialTerzaParte	firmly	heave	0	616	2
26	22	Female	Right	B	22/11/2016	11:11:37	186	TrialTerzaParte	swotting	chuly	2	520	2
26	22	Female	Right	B	22/11/2016	11:11:37	187	TrialTerzaParte	dietary	diet	1	619	1
26	22	Female	Right	B	22/11/2016	11:11:37	188	TrialTerzaParte	signal	quir	2	665	2
26	22	Female	Right	B	22/11/2016	11:11:37	189	TrialTerzaParte	reliable	blidar	2	627	2
26	22	Female	Right	B	22/11/2016	11:11:37	190	TrialTerzaParte	monastery	fagor	2	573	2
26	22	Female	Right	B	22/11/2016	11:11:37	191	TrialTerzaParte	illicit	ilkis	2	542	2
26	22	Female	Right	B	22/11/2016	11:11:37	192	TrialTerzaParte	muffin	mufir	2	473	2
26	22	Female	Right	B	22/11/2016	11:11:37	193	TrialTerzaParte	halogen	haly	2	648	2
26	22	Female	Right	B	22/11/2016	11:11:37	194	TrialTerzaParte	spindly	tact	0	566	2
26	22	Female	Right	B	22/11/2016	11:11:37	195	TrialTerzaParte	dragon	dron	2	507	2
26	22	Female	Right	B	22/11/2016	11:11:37	196	TrialTerzaParte	glossary	gloss	1	740	1
26	22	Female	Right	B	22/11/2016	11:11:37	197	TrialTerzaParte	opposition	nunfy	2	607	2
26	22	Female	Right	B	22/11/2016	11:11:37	198	TrialTerzaParte	splinter	splint	1	1228	1
26	22	Female	Right	B	22/11/2016	11:11:37	199	TrialTerzaParte	sandy	iron	0	606	1
26	22	Female	Right	B	22/11/2016	11:11:37	200	TrialTerzaParte	command	comma	1	871	1
26	22	Female	Right	B	22/11/2016	11:11:37	201	TrialTerzaParte	dysentery	ranin	2	675	2
26	22	Female	Right	B	22/11/2016	11:11:37	202	TrialTerzaParte	harden	filth	0	830	2
26	22	Female	Right	B	22/11/2016	11:11:37	203	TrialTerzaParte	finely	chill	0	629	1
26	22	Female	Right	B	22/11/2016	11:11:37	204	TrialTerzaParte	sudden	verty	2	593	2
26	22	Female	Right	B	22/11/2016	11:11:37	205	TrialTerzaParte	friar	blyr	2	547	2
26	22	Female	Right	B	22/11/2016	11:11:37	206	TrialTerzaParte	muffler	coast	0	533	1
26	22	Female	Right	B	22/11/2016	11:11:37	207	TrialTerzaParte	moulder	moure	2	429	2
26	22	Female	Right	B	22/11/2016	11:11:37	208	TrialTerzaParte	thinly	golf	0	581	1
26	22	Female	Right	B	22/11/2016	11:11:37	209	TrialTerzaParte	socialiser	flepity	2	583	2
26	22	Female	Right	B	22/11/2016	11:11:37	210	TrialTerzaParte	revolutionise	sivert	2	716	2
26	22	Female	Right	B	22/11/2016	11:11:37	211	TrialTerzaParte	sensuous	secly	2	555	2
26	22	Female	Right	B	22/11/2016	11:11:37	212	TrialTerzaParte	winger	pluck	0	519	2
26	22	Female	Right	B	22/11/2016	11:11:37	213	TrialTerzaParte	maximum	suyte	2	820	2
26	22	Female	Right	B	22/11/2016	11:11:37	214	TrialTerzaParte	crush	bemp	2	576	2
26	22	Female	Right	B	22/11/2016	11:11:37	215	TrialTerzaParte	chatter	trump	0	661	1
26	22	Female	Right	B	22/11/2016	11:11:37	216	TrialTerzaParte	tamponade	ruffy	2	751	1
26	22	Female	Right	B	22/11/2016	11:11:37	217	TrialTerzaParte	paternal	siter	2	904	2
26	22	Female	Right	B	22/11/2016	11:11:37	218	TrialTerzaParte	rancour	brits	2	633	2
26	22	Female	Right	B	22/11/2016	11:11:37	219	TrialTerzaParte	scanner	rast	2	486	2
26	22	Female	Right	B	22/11/2016	11:11:37	220	TrialTerzaParte	facetious	facet	1	746	2
26	22	Female	Right	B	22/11/2016	11:11:37	221	TrialTerzaParte	sovereign	sovign	2	1145	2
26	22	Female	Right	B	22/11/2016	11:11:37	222	TrialTerzaParte	agreement	agree	1	559	1
26	22	Female	Right	B	22/11/2016	11:11:37	223	TrialTerzaParte	happy	sigh	0	976	2
26	22	Female	Right	B	22/11/2016	11:11:37	224	TrialTerzaParte	clanger	spant	2	671	2
26	22	Female	Right	B	22/11/2016	11:11:37	225	TrialTerzaParte	brutal	helm	0	695	2
26	22	Female	Right	B	22/11/2016	11:11:37	226	TrialQuartaParte	really	numb	0	961	1
26	22	Female	Right	B	22/11/2016	11:11:37	227	TrialQuartaParte	parenthesis	parent	1	476	1
26	22	Female	Right	B	22/11/2016	11:11:37	228	TrialQuartaParte	fabulous	smaply	2	551	2
26	22	Female	Right	B	22/11/2016	11:11:37	229	TrialQuartaParte	manual	mals	2	529	2
26	22	Female	Right	B	22/11/2016	11:11:37	230	TrialQuartaParte	lately	dial	0	572	2
26	22	Female	Right	B	22/11/2016	11:11:37	231	TrialQuartaParte	awaken	tood	2	660	2
26	22	Female	Right	B	22/11/2016	11:11:37	232	TrialQuartaParte	demonstrate	demon	1	687	1
26	22	Female	Right	B	22/11/2016	11:11:37	233	TrialQuartaParte	lethal	lerd	2	571	2
26	22	Female	Right	B	22/11/2016	11:11:37	234	TrialQuartaParte	folder	heart	0	678	1
26	22	Female	Right	B	22/11/2016	11:11:37	235	TrialQuartaParte	employer	employ	1	530	1
26	22	Female	Right	B	22/11/2016	11:11:37	236	TrialQuartaParte	lesser	twit	0	568	1
26	22	Female	Right	B	22/11/2016	11:11:37	237	TrialQuartaParte	brisket	brisk	1	553	1
26	22	Female	Right	B	22/11/2016	11:11:37	238	TrialQuartaParte	gaiety	harse	2	531	2
26	22	Female	Right	B	22/11/2016	11:11:37	239	TrialQuartaParte	stubborn	stub	1	467	2
26	22	Female	Right	B	22/11/2016	11:11:37	240	TrialQuartaParte	inventory	invent	1	523	1
26	22	Female	Right	B	22/11/2016	11:11:37	241	TrialQuartaParte	phonetic	phone	1	494	1
26	22	Female	Right	B	22/11/2016	11:11:37	242	TrialQuartaParte	routeing	tomed	2	527	2
26	22	Female	Right	B	22/11/2016	11:11:37	243	TrialQuartaParte	brothel	broth	1	725	2
26	22	Female	Right	B	22/11/2016	11:11:37	244	TrialQuartaParte	watery	cream	0	510	1
26	22	Female	Right	B	22/11/2016	11:11:37	245	TrialQuartaParte	unspoilt	nalky	2	627	2
26	22	Female	Right	B	22/11/2016	11:11:37	246	TrialQuartaParte	eruption	erupt	1	625	1
26	22	Female	Right	B	22/11/2016	11:11:37	247	TrialQuartaParte	alarming	alarm	1	570	1
26	22	Female	Right	B	22/11/2016	11:11:37	248	TrialQuartaParte	surface	surf	1	645	1
26	22	Female	Right	B	22/11/2016	11:11:37	249	TrialQuartaParte	cloudless	cloud	1	444	1
26	22	Female	Right	B	22/11/2016	11:11:37	250	TrialQuartaParte	criminal	huare	2	554	2
26	22	Female	Right	B	22/11/2016	11:11:37	251	TrialQuartaParte	nincompoops	ninpoo	2	503	2
26	22	Female	Right	B	22/11/2016	11:11:37	252	TrialQuartaParte	deficit	dety	2	575	2
26	22	Female	Right	B	22/11/2016	11:11:37	253	TrialQuartaParte	appendix	append	1	519	1
26	22	Female	Right	B	22/11/2016	11:11:37	254	TrialQuartaParte	prayer	butt	0	554	1
26	22	Female	Right	B	22/11/2016	11:11:37	255	TrialQuartaParte	gluteal	abtle	2	843	2
26	22	Female	Right	B	22/11/2016	11:11:37	256	TrialQuartaParte	government	govern	1	580	1
26	22	Female	Right	B	22/11/2016	11:11:37	257	TrialQuartaParte	decision	posig	2	583	2
26	22	Female	Right	B	22/11/2016	11:11:37	258	TrialQuartaParte	armoury	arwor	2	581	2
26	22	Female	Right	B	22/11/2016	11:11:37	259	TrialQuartaParte	summit	sutty	2	538	2
26	22	Female	Right	B	22/11/2016	11:11:37	260	TrialQuartaParte	teacher	teach	1	502	1
26	22	Female	Right	B	22/11/2016	11:11:37	261	TrialQuartaParte	surgeon	surge	1	612	1
26	22	Female	Right	B	22/11/2016	11:11:37	262	TrialQuartaParte	stroke	cligh	2	773	2
26	22	Female	Right	B	22/11/2016	11:11:37	263	TrialQuartaParte	pummel	syly	2	594	2
26	22	Female	Right	B	22/11/2016	11:11:37	264	TrialQuartaParte	within	earl	0	682	1
26	22	Female	Right	B	22/11/2016	11:11:37	265	TrialQuartaParte	snobbery	snotty	2	731	2
26	22	Female	Right	B	22/11/2016	11:11:37	266	TrialQuartaParte	feudal	arch	0	766	1
26	22	Female	Right	B	22/11/2016	11:11:37	267	TrialQuartaParte	desert	dert	2	755	2
26	22	Female	Right	B	22/11/2016	11:11:37	268	TrialQuartaParte	supplant	plosy	2	639	2
26	22	Female	Right	B	22/11/2016	11:11:37	269	TrialQuartaParte	neighbour	neigh	1	627	2
26	22	Female	Right	B	22/11/2016	11:11:37	270	TrialQuartaParte	ambush	amshy	2	578	2
26	22	Female	Right	B	22/11/2016	11:11:37	271	TrialQuartaParte	arsenal	arse	1	1181	1
26	22	Female	Right	B	22/11/2016	11:11:37	272	TrialQuartaParte	lively	licey	2	1006	2
26	22	Female	Right	B	22/11/2016	11:11:37	273	TrialQuartaParte	faceless	facmod	2	640	2
26	22	Female	Right	B	22/11/2016	11:11:37	274	TrialQuartaParte	thinker	beard	0	705	1
26	22	Female	Right	B	22/11/2016	11:11:37	275	TrialQuartaParte	drunkard	drunk	1	587	1
26	22	Female	Right	B	22/11/2016	11:11:37	276	TrialQuartaParte	yardage	yage	2	1014	2
26	22	Female	Right	B	22/11/2016	11:11:37	277	TrialQuartaParte	fatal	fids	2	622	2
26	22	Female	Right	B	22/11/2016	11:11:37	278	TrialQuartaParte	traffic	trepy	2	587	2
26	22	Female	Right	B	22/11/2016	11:11:37	279	TrialQuartaParte	farcical	farxy	2	535	2
26	22	Female	Right	B	22/11/2016	11:11:37	280	TrialQuartaParte	content	conly	2	543	2
26	22	Female	Right	B	22/11/2016	11:11:37	281	TrialQuartaParte	rebound	cous	2	622	2
26	22	Female	Right	B	22/11/2016	11:11:37	282	TrialQuartaParte	touchy	fizz	0	767	1
26	22	Female	Right	B	22/11/2016	11:11:37	283	TrialQuartaParte	formal	guilt	0	710	1
26	22	Female	Right	B	22/11/2016	11:11:37	284	TrialQuartaParte	heroic	soft	0	613	1
26	22	Female	Right	B	22/11/2016	11:11:37	285	TrialQuartaParte	pottage	posch	2	743	2
26	22	Female	Right	B	22/11/2016	11:11:37	286	TrialQuartaParte	legendary	legend	1	523	1
26	22	Female	Right	B	22/11/2016	11:11:37	287	TrialQuartaParte	tributary	calin	2	653	2
26	22	Female	Right	B	22/11/2016	11:11:37	288	TrialQuartaParte	vivacious	vicis	2	709	2
26	22	Female	Right	B	22/11/2016	11:11:37	289	TrialQuartaParte	acutely	nymph	0	917	1
26	22	Female	Right	B	22/11/2016	11:11:37	290	TrialQuartaParte	basilisk	basil	1	621	1
26	22	Female	Right	B	22/11/2016	11:11:37	291	TrialQuartaParte	classic	clals	2	735	2
26	22	Female	Right	B	22/11/2016	11:11:37	292	TrialQuartaParte	floater	float	1	590	1
26	22	Female	Right	B	22/11/2016	11:11:37	293	TrialQuartaParte	misty	stun	0	853	2
26	22	Female	Right	B	22/11/2016	11:11:37	294	TrialQuartaParte	difference	difrol	2	582	2
26	22	Female	Right	B	22/11/2016	11:11:37	295	TrialQuartaParte	tricky	shove	0	955	2
26	22	Female	Right	B	22/11/2016	11:11:37	296	TrialQuartaParte	cheaply	twin	0	557	1
26	22	Female	Right	B	22/11/2016	11:11:37	297	TrialQuartaParte	question	quest	1	668	1
26	22	Female	Right	B	22/11/2016	11:11:37	298	TrialQuartaParte	baronet	baron	1	892	1
26	22	Female	Right	B	22/11/2016	11:11:37	299	TrialQuartaParte	widen	amp	0	747	2
26	22	Female	Right	B	22/11/2016	11:11:37	300	TrialQuartaParte	bubble	glef	2	521	2
