Subject	Age	Gender	Handedness	Rotation	Data	OraStart	TrialCount	TrialType	Prime	Target	Relatedness	rt	Resp
27	21	Male	Right	A	22/11/2016	13:30:46	1	Prova	wellness	well	4	888	2
27	21	Male	Right	A	22/11/2016	13:30:46	2	Prova	homeless	home	4	497	2
27	21	Male	Right	A	22/11/2016	13:30:46	3	Prova	tricky	tricker	4	787	1
27	21	Male	Right	A	22/11/2016	13:30:46	4	Prova	character	char	4	644	1
27	21	Male	Right	A	22/11/2016	13:30:46	5	Prova	translater	pulter	4	503	1
27	21	Male	Right	A	22/11/2016	13:30:46	6	Prova2	escape	exat	4	726	2
27	21	Male	Right	A	22/11/2016	13:30:46	7	Prova2	investigator	invest	4	585	2
27	21	Male	Right	A	22/11/2016	13:30:46	8	Prova2	examiner	exam	4	508	2
27	21	Male	Right	A	22/11/2016	13:30:46	9	Prova2	topic	top	4	529	2
27	21	Male	Right	A	22/11/2016	13:30:46	1	Warmup	unpack	pack	5	913	2
27	21	Male	Right	A	22/11/2016	13:30:46	2	Warmup	tartare	tariff	5	540	2
27	21	Male	Right	A	22/11/2016	13:30:46	3	Warmup	cowrie	sturms	5	678	1
27	21	Male	Right	A	22/11/2016	13:30:46	4	Warmup	cortex	newbie	5	555	1
27	21	Male	Right	A	22/11/2016	13:30:46	5	Warmup	pullma	pulm	5	716	1
27	21	Male	Right	A	22/11/2016	13:30:46	1	TrialPrimaParte	portal	balp	2	605	1
27	21	Male	Right	A	22/11/2016	13:30:46	2	TrialPrimaParte	united	unit	1	503	2
27	21	Male	Right	A	22/11/2016	13:30:46	3	TrialPrimaParte	hatchery	fighy	2	604	1
27	21	Male	Right	A	22/11/2016	13:30:46	4	TrialPrimaParte	faceless	facmod	2	601	1
27	21	Male	Right	A	22/11/2016	13:30:46	5	TrialPrimaParte	scrooge	plich	2	432	1
27	21	Male	Right	A	22/11/2016	13:30:46	6	TrialPrimaParte	gastric	waser	2	502	1
27	21	Male	Right	A	22/11/2016	13:30:46	7	TrialPrimaParte	exemption	renew	0	500	1
27	21	Male	Right	A	22/11/2016	13:30:46	8	TrialPrimaParte	paternal	siter	2	556	1
27	21	Male	Right	A	22/11/2016	13:30:46	9	TrialPrimaParte	sufferer	gloss	0	553	2
27	21	Male	Right	A	22/11/2016	13:30:46	10	TrialPrimaParte	enactment	cloud	0	521	2
27	21	Male	Right	A	22/11/2016	13:30:46	11	TrialPrimaParte	damsel	dalp	2	639	1
27	21	Male	Right	A	22/11/2016	13:30:46	12	TrialPrimaParte	haulier	halfe	2	803	1
27	21	Male	Right	A	22/11/2016	13:30:46	13	TrialPrimaParte	glade	glad	1	606	2
27	21	Male	Right	A	22/11/2016	13:30:46	14	TrialPrimaParte	mimicry	quiet	0	1148	2
27	21	Male	Right	A	22/11/2016	13:30:46	15	TrialPrimaParte	sight	sigh	1	978	2
27	21	Male	Right	A	22/11/2016	13:30:46	16	TrialPrimaParte	guilty	guilt	1	586	2
27	21	Male	Right	A	22/11/2016	13:30:46	17	TrialPrimaParte	quartz	quart	1	678	2
27	21	Male	Right	A	22/11/2016	13:30:46	18	TrialPrimaParte	tamponade	ruffy	2	655	1
27	21	Male	Right	A	22/11/2016	13:30:46	19	TrialPrimaParte	farcical	farxy	2	614	1
27	21	Male	Right	A	22/11/2016	13:30:46	20	TrialPrimaParte	criminal	huare	2	612	1
27	21	Male	Right	A	22/11/2016	13:30:46	21	TrialPrimaParte	vengeful	cherb	2	456	1
27	21	Male	Right	A	22/11/2016	13:30:46	22	TrialPrimaParte	advisory	advock	2	528	1
27	21	Male	Right	A	22/11/2016	13:30:46	23	TrialPrimaParte	deficit	dety	2	684	1
27	21	Male	Right	A	22/11/2016	13:30:46	24	TrialPrimaParte	tendency	critic	0	485	1
27	21	Male	Right	A	22/11/2016	13:30:46	25	TrialPrimaParte	adopted	adopt	1	535	2
27	21	Male	Right	A	22/11/2016	13:30:46	26	TrialPrimaParte	revolutionise	sivert	2	736	1
27	21	Male	Right	A	22/11/2016	13:30:46	27	TrialPrimaParte	message	rosty	2	598	1
27	21	Male	Right	A	22/11/2016	13:30:46	28	TrialPrimaParte	crikey	brize	2	517	1
27	21	Male	Right	A	22/11/2016	13:30:46	29	TrialPrimaParte	wearily	diet	0	554	2
27	21	Male	Right	A	22/11/2016	13:30:46	30	TrialPrimaParte	twitch	twit	1	669	1
27	21	Male	Right	A	22/11/2016	13:30:46	31	TrialPrimaParte	veteran	venic	2	681	1
27	21	Male	Right	A	22/11/2016	13:30:46	32	TrialPrimaParte	decision	posig	2	590	1
27	21	Male	Right	A	22/11/2016	13:30:46	33	TrialPrimaParte	mourner	mourn	1	411	1
27	21	Male	Right	A	22/11/2016	13:30:46	34	TrialPrimaParte	postage	poth	2	416	1
27	21	Male	Right	A	22/11/2016	13:30:46	35	TrialPrimaParte	sudden	verty	2	450	1
27	21	Male	Right	A	22/11/2016	13:30:46	36	TrialPrimaParte	tufted	tuft	1	583	1
27	21	Male	Right	A	22/11/2016	13:30:46	37	TrialPrimaParte	dweller	crypt	0	534	1
27	21	Male	Right	A	22/11/2016	13:30:46	38	TrialPrimaParte	idealism	splint	0	708	1
27	21	Male	Right	A	22/11/2016	13:30:46	39	TrialPrimaParte	revolutionary	intern	0	662	2
27	21	Male	Right	A	22/11/2016	13:30:46	40	TrialPrimaParte	kinetic	kinse	2	807	1
27	21	Male	Right	A	22/11/2016	13:30:46	41	TrialPrimaParte	addition	employ	0	739	2
27	21	Male	Right	A	22/11/2016	13:30:46	42	TrialPrimaParte	toaster	toast	1	474	2
27	21	Male	Right	A	22/11/2016	13:30:46	43	TrialPrimaParte	killer	lalf	2	697	2
27	21	Male	Right	A	22/11/2016	13:30:46	44	TrialPrimaParte	analogy	anopy	2	652	1
27	21	Male	Right	A	22/11/2016	13:30:46	45	TrialPrimaParte	socialiser	flepity	2	664	1
27	21	Male	Right	A	22/11/2016	13:30:46	46	TrialPrimaParte	coaster	coast	1	665	2
27	21	Male	Right	A	22/11/2016	13:30:46	47	TrialPrimaParte	rancour	brits	2	591	1
27	21	Male	Right	A	22/11/2016	13:30:46	48	TrialPrimaParte	moulder	moure	2	487	1
27	21	Male	Right	A	22/11/2016	13:30:46	49	TrialPrimaParte	syphilis	ruar	2	639	1
27	21	Male	Right	A	22/11/2016	13:30:46	50	TrialPrimaParte	filthy	filth	1	518	1
27	21	Male	Right	A	22/11/2016	13:30:46	51	TrialPrimaParte	service	count	0	688	2
27	21	Male	Right	A	22/11/2016	13:30:46	52	TrialPrimaParte	loyally	buzz	0	638	2
27	21	Male	Right	A	22/11/2016	13:30:46	53	TrialPrimaParte	simplify	fleet	0	579	2
27	21	Male	Right	A	22/11/2016	13:30:46	54	TrialPrimaParte	plastic	spaxe	2	515	1
27	21	Male	Right	A	22/11/2016	13:30:46	55	TrialPrimaParte	bubble	glef	2	789	1
27	21	Male	Right	A	22/11/2016	13:30:46	56	TrialPrimaParte	manual	mals	2	1015	1
27	21	Male	Right	A	22/11/2016	13:30:46	57	TrialPrimaParte	citation	fuse	0	469	1
27	21	Male	Right	A	22/11/2016	13:30:46	58	TrialPrimaParte	smuggle	smug	1	644	2
27	21	Male	Right	A	22/11/2016	13:30:46	59	TrialPrimaParte	obviously	secret	0	574	2
27	21	Male	Right	A	22/11/2016	13:30:46	60	TrialPrimaParte	snobby	snool	2	565	1
27	21	Male	Right	A	22/11/2016	13:30:46	61	TrialPrimaParte	illicit	ilkis	2	524	1
27	21	Male	Right	A	22/11/2016	13:30:46	62	TrialPrimaParte	griffin	spoff	2	562	1
27	21	Male	Right	A	22/11/2016	13:30:46	63	TrialPrimaParte	situation	govern	0	551	2
27	21	Male	Right	A	22/11/2016	13:30:46	64	TrialPrimaParte	timidly	arse	0	571	1
27	21	Male	Right	A	22/11/2016	13:30:46	65	TrialPrimaParte	helmet	helm	1	589	1
27	21	Male	Right	A	22/11/2016	13:30:46	66	TrialPrimaParte	unspoilt	nalky	2	629	1
27	21	Male	Right	A	22/11/2016	13:30:46	67	TrialPrimaParte	trolley	troll	1	683	2
27	21	Male	Right	A	22/11/2016	13:30:46	68	TrialPrimaParte	monastery	fagor	2	749	1
27	21	Male	Right	A	22/11/2016	13:30:46	69	TrialPrimaParte	edible	esigh	2	566	1
27	21	Male	Right	A	22/11/2016	13:30:46	70	TrialPrimaParte	mosaic	mip	2	663	1
27	21	Male	Right	A	22/11/2016	13:30:46	71	TrialPrimaParte	highlight	gylpo	2	470	1
27	21	Male	Right	A	22/11/2016	13:30:46	72	TrialPrimaParte	finally	teach	0	764	2
27	21	Male	Right	A	22/11/2016	13:30:46	73	TrialPrimaParte	acidic	acid	1	723	1
27	21	Male	Right	A	22/11/2016	13:30:46	74	TrialPrimaParte	epileptic	candid	0	803	2
27	21	Male	Right	A	22/11/2016	13:30:46	75	TrialPrimaParte	button	butt	1	475	2
27	21	Male	Right	A	22/11/2016	13:30:46	76	TrialSecondaParte	answer	anwe	2	665	1
27	21	Male	Right	A	22/11/2016	13:30:46	77	TrialSecondaParte	summit	sutty	2	677	1
27	21	Male	Right	A	22/11/2016	13:30:46	78	TrialSecondaParte	tackler	lerf	2	361	1
27	21	Male	Right	A	22/11/2016	13:30:46	79	TrialSecondaParte	gluten	glut	1	374	1
27	21	Male	Right	A	22/11/2016	13:30:46	80	TrialSecondaParte	planet	plan	1	429	2
27	21	Male	Right	A	22/11/2016	13:30:46	81	TrialSecondaParte	risky	risk	1	610	2
27	21	Male	Right	A	22/11/2016	13:30:46	82	TrialSecondaParte	power	mord	2	655	1
27	21	Male	Right	A	22/11/2016	13:30:46	83	TrialSecondaParte	clanger	spant	2	581	1
27	21	Male	Right	A	22/11/2016	13:30:46	84	TrialSecondaParte	sensuous	secly	2	455	1
27	21	Male	Right	A	22/11/2016	13:30:46	85	TrialSecondaParte	stirrup	stir	1	413	1
27	21	Male	Right	A	22/11/2016	13:30:46	86	TrialSecondaParte	squawk	squaw	1	522	1
27	21	Male	Right	A	22/11/2016	13:30:46	87	TrialSecondaParte	suburban	elect	0	474	1
27	21	Male	Right	A	22/11/2016	13:30:46	88	TrialSecondaParte	palpably	amen	0	523	1
27	21	Male	Right	A	22/11/2016	13:30:46	89	TrialSecondaParte	alcoholic	fruit	0	532	2
27	21	Male	Right	A	22/11/2016	13:30:46	90	TrialSecondaParte	chilly	chill	1	500	2
27	21	Male	Right	A	22/11/2016	13:30:46	91	TrialSecondaParte	struggled	neigh	0	479	1
27	21	Male	Right	A	22/11/2016	13:30:46	92	TrialSecondaParte	composer	alarm	0	516	2
27	21	Male	Right	A	22/11/2016	13:30:46	93	TrialSecondaParte	medical	surf	0	598	2
27	21	Male	Right	A	22/11/2016	13:30:46	94	TrialSecondaParte	snobbish	green	0	625	2
27	21	Male	Right	A	22/11/2016	13:30:46	95	TrialSecondaParte	rabbit	rabbi	1	614	2
27	21	Male	Right	A	22/11/2016	13:30:46	96	TrialSecondaParte	selfless	audit	0	586	2
27	21	Male	Right	A	22/11/2016	13:30:46	97	TrialSecondaParte	cousin	coul	2	580	1
27	21	Male	Right	A	22/11/2016	13:30:46	98	TrialSecondaParte	existent	gruel	0	928	1
27	21	Male	Right	A	22/11/2016	13:30:46	99	TrialSecondaParte	fabulous	smaply	2	567	1
27	21	Male	Right	A	22/11/2016	13:30:46	100	TrialSecondaParte	inherent	inpock	2	684	1
27	21	Male	Right	A	22/11/2016	13:30:46	101	TrialSecondaParte	early	earl	1	485	2
27	21	Male	Right	A	22/11/2016	13:30:46	102	TrialSecondaParte	plunder	acre	0	595	1
27	21	Male	Right	A	22/11/2016	13:30:46	103	TrialSecondaParte	absence	agsel	2	494	1
27	21	Male	Right	A	22/11/2016	13:30:46	104	TrialSecondaParte	maternal	malern	2	515	1
27	21	Male	Right	A	22/11/2016	13:30:46	105	TrialSecondaParte	classic	clals	2	482	1
27	21	Male	Right	A	22/11/2016	13:30:46	106	TrialSecondaParte	physical	react	0	920	2
27	21	Male	Right	A	22/11/2016	13:30:46	107	TrialSecondaParte	fanatic	fanty	2	540	2
27	21	Male	Right	A	22/11/2016	13:30:46	108	TrialSecondaParte	believer	append	0	702	2
27	21	Male	Right	A	22/11/2016	13:30:46	109	TrialSecondaParte	itinerary	itiner	2	812	2
27	21	Male	Right	A	22/11/2016	13:30:46	110	TrialSecondaParte	rebound	cous	2	504	1
27	21	Male	Right	A	22/11/2016	13:30:46	111	TrialSecondaParte	passel	turp	2	556	1
27	21	Male	Right	A	22/11/2016	13:30:46	112	TrialSecondaParte	lectureship	parent	0	816	2
27	21	Male	Right	A	22/11/2016	13:30:46	113	TrialSecondaParte	original	orive	2	680	2
27	21	Male	Right	A	22/11/2016	13:30:46	114	TrialSecondaParte	narrowly	scull	0	503	1
27	21	Male	Right	A	22/11/2016	13:30:46	115	TrialSecondaParte	engage	yurd	2	597	1
27	21	Male	Right	A	22/11/2016	13:30:46	116	TrialSecondaParte	heaven	heave	1	460	1
27	21	Male	Right	A	22/11/2016	13:30:46	117	TrialSecondaParte	prosecution	leler	2	758	1
27	21	Male	Right	A	22/11/2016	13:30:46	118	TrialSecondaParte	abstain	abter	2	569	1
27	21	Male	Right	A	22/11/2016	13:30:46	119	TrialSecondaParte	weird	weir	1	693	1
27	21	Male	Right	A	22/11/2016	13:30:46	120	TrialSecondaParte	scruffy	thick	0	658	1
27	21	Male	Right	A	22/11/2016	13:30:46	121	TrialSecondaParte	muffin	mufir	2	513	1
27	21	Male	Right	A	22/11/2016	13:30:46	122	TrialSecondaParte	shunt	shun	1	563	1
27	21	Male	Right	A	22/11/2016	13:30:46	123	TrialSecondaParte	shovel	shove	1	538	1
27	21	Male	Right	A	22/11/2016	13:30:46	124	TrialSecondaParte	soften	soft	1	654	2
27	21	Male	Right	A	22/11/2016	13:30:46	125	TrialSecondaParte	trainee	train	1	693	2
27	21	Male	Right	A	22/11/2016	13:30:46	126	TrialSecondaParte	dusty	dusy	2	550	1
27	21	Male	Right	A	22/11/2016	13:30:46	127	TrialSecondaParte	passant	pasks	2	657	1
27	21	Male	Right	A	22/11/2016	13:30:46	128	TrialSecondaParte	vigilant	vigan	2	590	1
27	21	Male	Right	A	22/11/2016	13:30:46	129	TrialSecondaParte	olympic	olick	2	560	1
27	21	Male	Right	A	22/11/2016	13:30:46	130	TrialSecondaParte	novelty	surge	0	657	1
27	21	Male	Right	A	22/11/2016	13:30:46	131	TrialSecondaParte	sniper	snip	1	498	1
27	21	Male	Right	A	22/11/2016	13:30:46	132	TrialSecondaParte	boarder	board	1	495	1
27	21	Male	Right	A	22/11/2016	13:30:46	133	TrialSecondaParte	reliable	blidar	2	529	1
27	21	Male	Right	A	22/11/2016	13:30:46	134	TrialSecondaParte	fibrosis	shuar	2	517	1
27	21	Male	Right	A	22/11/2016	13:30:46	135	TrialSecondaParte	starter	disc	0	608	1
27	21	Male	Right	A	22/11/2016	13:30:46	136	TrialSecondaParte	treaty	treat	1	529	2
27	21	Male	Right	A	22/11/2016	13:30:46	137	TrialSecondaParte	genetic	genth	2	613	1
27	21	Male	Right	A	22/11/2016	13:30:46	138	TrialSecondaParte	friendly	north	0	902	2
27	21	Male	Right	A	22/11/2016	13:30:46	139	TrialSecondaParte	rumbling	ether	0	674	1
27	21	Male	Right	A	22/11/2016	13:30:46	140	TrialSecondaParte	opposition	nunfy	2	592	1
27	21	Male	Right	A	22/11/2016	13:30:46	141	TrialSecondaParte	marshy	marsh	1	808	2
27	21	Male	Right	A	22/11/2016	13:30:46	142	TrialSecondaParte	daring	dalig	2	825	1
27	21	Male	Right	A	22/11/2016	13:30:46	143	TrialSecondaParte	polite	tind	2	486	1
27	21	Male	Right	A	22/11/2016	13:30:46	144	TrialSecondaParte	plonking	pluny	2	509	1
27	21	Male	Right	A	22/11/2016	13:30:46	145	TrialSecondaParte	validity	infant	0	583	2
27	21	Male	Right	A	22/11/2016	13:30:46	146	TrialSecondaParte	yardage	yage	2	583	1
27	21	Male	Right	A	22/11/2016	13:30:46	147	TrialSecondaParte	penguin	phorb	2	481	1
27	21	Male	Right	A	22/11/2016	13:30:46	148	TrialSecondaParte	distantly	facet	0	570	1
27	21	Male	Right	A	22/11/2016	13:30:46	149	TrialSecondaParte	equally	comma	0	590	2
27	21	Male	Right	A	22/11/2016	13:30:46	150	TrialSecondaParte	sovereign	sovign	2	535	1
27	21	Male	Right	A	22/11/2016	13:30:46	151	TrialTerzaParte	abstract	fewtu	2	630	1
27	21	Male	Right	A	22/11/2016	13:30:46	152	TrialTerzaParte	utter	uls	2	571	1
27	21	Male	Right	A	22/11/2016	13:30:46	153	TrialTerzaParte	cranky	crony	2	491	1
27	21	Male	Right	A	22/11/2016	13:30:46	154	TrialTerzaParte	irony	iron	1	556	2
27	21	Male	Right	A	22/11/2016	13:30:46	155	TrialTerzaParte	linkage	flion	2	817	1
27	21	Male	Right	A	22/11/2016	13:30:46	156	TrialTerzaParte	broiler	plum	0	567	1
27	21	Male	Right	A	22/11/2016	13:30:46	157	TrialTerzaParte	supplant	plosy	2	551	1
27	21	Male	Right	A	22/11/2016	13:30:46	158	TrialTerzaParte	friar	blyr	2	568	1
27	21	Male	Right	A	22/11/2016	13:30:46	159	TrialTerzaParte	dysentery	ranin	2	862	1
27	21	Male	Right	A	22/11/2016	13:30:46	160	TrialTerzaParte	bulbous	bulb	1	692	2
27	21	Male	Right	A	22/11/2016	13:30:46	161	TrialTerzaParte	trumpet	trump	1	787	2
27	21	Male	Right	A	22/11/2016	13:30:46	162	TrialTerzaParte	talker	claf	2	715	1
27	21	Male	Right	A	22/11/2016	13:30:46	163	TrialTerzaParte	twinkle	twin	1	806	2
27	21	Male	Right	A	22/11/2016	13:30:46	164	TrialTerzaParte	booklet	text	0	694	2
27	21	Male	Right	A	22/11/2016	13:30:46	165	TrialTerzaParte	culprit	cuti	2	571	1
27	21	Male	Right	A	22/11/2016	13:30:46	166	TrialTerzaParte	archer	arch	1	733	2
27	21	Male	Right	A	22/11/2016	13:30:46	167	TrialTerzaParte	number	numb	1	854	1
27	21	Male	Right	A	22/11/2016	13:30:46	168	TrialTerzaParte	foundry	brisk	0	785	2
27	21	Male	Right	A	22/11/2016	13:30:46	169	TrialTerzaParte	production	depart	0	653	2
27	21	Male	Right	A	22/11/2016	13:30:46	170	TrialTerzaParte	repertory	repty	2	515	1
27	21	Male	Right	A	22/11/2016	13:30:46	171	TrialTerzaParte	hearty	heart	1	592	2
27	21	Male	Right	A	22/11/2016	13:30:46	172	TrialTerzaParte	child	sild	2	556	1
27	21	Male	Right	A	22/11/2016	13:30:46	173	TrialTerzaParte	desert	dert	2	675	1
27	21	Male	Right	A	22/11/2016	13:30:46	174	TrialTerzaParte	plush	plus	1	810	2
27	21	Male	Right	A	22/11/2016	13:30:46	175	TrialTerzaParte	ability	colon	0	622	2
27	21	Male	Right	A	22/11/2016	13:30:46	176	TrialTerzaParte	merrier	merks	2	563	2
27	21	Male	Right	A	22/11/2016	13:30:46	177	TrialTerzaParte	ceramic	cerbs	2	717	1
27	21	Male	Right	A	22/11/2016	13:30:46	178	TrialTerzaParte	upstart	pumy	2	623	1
27	21	Male	Right	A	22/11/2016	13:30:46	179	TrialTerzaParte	scrape	scrap	1	978	1
27	21	Male	Right	A	22/11/2016	13:30:46	180	TrialTerzaParte	equipment	agree	0	765	2
27	21	Male	Right	A	22/11/2016	13:30:46	181	TrialTerzaParte	crooked	crook	1	687	1
27	21	Male	Right	A	22/11/2016	13:30:46	182	TrialTerzaParte	unique	unzed	2	508	1
27	21	Male	Right	A	22/11/2016	13:30:46	183	TrialTerzaParte	absurdity	plain	0	625	2
27	21	Male	Right	A	22/11/2016	13:30:46	184	TrialTerzaParte	actually	quest	0	674	2
27	21	Male	Right	A	22/11/2016	13:30:46	185	TrialTerzaParte	halogen	haly	2	623	2
27	21	Male	Right	A	22/11/2016	13:30:46	186	TrialTerzaParte	putty	putt	1	630	2
27	21	Male	Right	A	22/11/2016	13:30:46	187	TrialTerzaParte	dreadful	phone	0	583	2
27	21	Male	Right	A	22/11/2016	13:30:46	188	TrialTerzaParte	awaken	tood	2	565	1
27	21	Male	Right	A	22/11/2016	13:30:46	189	TrialTerzaParte	biscuit	bist	2	611	1
27	21	Male	Right	A	22/11/2016	13:30:46	190	TrialTerzaParte	bourbon	boun	2	725	1
27	21	Male	Right	A	22/11/2016	13:30:46	191	TrialTerzaParte	difference	difrol	2	503	1
27	21	Male	Right	A	22/11/2016	13:30:46	192	TrialTerzaParte	galaxy	gala	1	649	1
27	21	Male	Right	A	22/11/2016	13:30:46	193	TrialTerzaParte	nincompoops	ninpoo	2	769	1
27	21	Male	Right	A	22/11/2016	13:30:46	194	TrialTerzaParte	smelly	thuly	2	642	1
27	21	Male	Right	A	22/11/2016	13:30:46	195	TrialTerzaParte	forceps	force	1	805	1
27	21	Male	Right	A	22/11/2016	13:30:46	196	TrialTerzaParte	masonry	dream	0	515	2
27	21	Male	Right	A	22/11/2016	13:30:46	197	TrialTerzaParte	signal	quir	2	426	1
27	21	Male	Right	A	22/11/2016	13:30:46	198	TrialTerzaParte	whisker	whisk	1	927	1
27	21	Male	Right	A	22/11/2016	13:30:46	199	TrialTerzaParte	jetty	kuty	2	536	1
27	21	Male	Right	A	22/11/2016	13:30:46	200	TrialTerzaParte	dialog	dial	1	611	1
27	21	Male	Right	A	22/11/2016	13:30:46	201	TrialTerzaParte	gravel	flixy	2	503	1
27	21	Male	Right	A	22/11/2016	13:30:46	202	TrialTerzaParte	jauntily	scald	0	759	1
27	21	Male	Right	A	22/11/2016	13:30:46	203	TrialTerzaParte	anxiously	legend	0	1047	2
27	21	Male	Right	A	22/11/2016	13:30:46	204	TrialTerzaParte	lethal	lerd	2	901	1
27	21	Male	Right	A	22/11/2016	13:30:46	205	TrialTerzaParte	feathery	drunk	0	551	2
27	21	Male	Right	A	22/11/2016	13:30:46	206	TrialTerzaParte	warfare	broth	0	608	2
27	21	Male	Right	A	22/11/2016	13:30:46	207	TrialTerzaParte	pulpit	pulp	1	551	2
27	21	Male	Right	A	22/11/2016	13:30:46	208	TrialTerzaParte	plucky	pluck	1	599	1
27	21	Male	Right	A	22/11/2016	13:30:46	209	TrialTerzaParte	raffle	rafel	2	763	1
27	21	Male	Right	A	22/11/2016	13:30:46	210	TrialTerzaParte	routeing	tomed	2	869	1
27	21	Male	Right	A	22/11/2016	13:30:46	211	TrialTerzaParte	developer	court	0	490	1
27	21	Male	Right	A	22/11/2016	13:30:46	212	TrialTerzaParte	skylight	skigh	2	590	1
27	21	Male	Right	A	22/11/2016	13:30:46	213	TrialTerzaParte	graphic	blamp	2	658	1
27	21	Male	Right	A	22/11/2016	13:30:46	214	TrialTerzaParte	swotting	chuly	2	520	1
27	21	Male	Right	A	22/11/2016	13:30:46	215	TrialTerzaParte	ribbon	ribed	2	562	1
27	21	Male	Right	A	22/11/2016	13:30:46	216	TrialTerzaParte	calmness	artist	0	623	2
27	21	Male	Right	A	22/11/2016	13:30:46	217	TrialTerzaParte	category	cagre	2	518	1
27	21	Male	Right	A	22/11/2016	13:30:46	218	TrialTerzaParte	perhaps	again	0	751	2
27	21	Male	Right	A	22/11/2016	13:30:46	219	TrialTerzaParte	crafty	craft	1	628	2
27	21	Male	Right	A	22/11/2016	13:30:46	220	TrialTerzaParte	education	educon	2	727	1
27	21	Male	Right	A	22/11/2016	13:30:46	221	TrialTerzaParte	public	pub	1	793	1
27	21	Male	Right	A	22/11/2016	13:30:46	222	TrialTerzaParte	scanner	rast	2	687	1
27	21	Male	Right	A	22/11/2016	13:30:46	223	TrialTerzaParte	ample	amp	1	558	1
27	21	Male	Right	A	22/11/2016	13:30:46	224	TrialTerzaParte	stressful	abgaid	2	824	1
27	21	Male	Right	A	22/11/2016	13:30:46	225	TrialTerzaParte	crummy	meye	2	592	1
27	21	Male	Right	A	22/11/2016	13:30:46	226	TrialQuartaParte	grouse	gruf	2	647	1
27	21	Male	Right	A	22/11/2016	13:30:46	227	TrialQuartaParte	stunt	stun	1	420	1
27	21	Male	Right	A	22/11/2016	13:30:46	228	TrialQuartaParte	hydration	povic	2	566	1
27	21	Male	Right	A	22/11/2016	13:30:46	229	TrialQuartaParte	vivacious	vicis	2	468	1
27	21	Male	Right	A	22/11/2016	13:30:46	230	TrialQuartaParte	jerkin	jerk	1	476	1
27	21	Male	Right	A	22/11/2016	13:30:46	231	TrialQuartaParte	bearded	beard	1	516	1
27	21	Male	Right	A	22/11/2016	13:30:46	232	TrialQuartaParte	nymphet	nymph	1	504	1
27	21	Male	Right	A	22/11/2016	13:30:46	233	TrialQuartaParte	ambush	amshy	2	752	1
27	21	Male	Right	A	22/11/2016	13:30:46	234	TrialQuartaParte	legacy	lecy	2	650	1
27	21	Male	Right	A	22/11/2016	13:30:46	235	TrialQuartaParte	piratical	pirent	2	788	1
27	21	Male	Right	A	22/11/2016	13:30:46	236	TrialQuartaParte	creamy	cream	1	778	2
27	21	Male	Right	A	22/11/2016	13:30:46	237	TrialQuartaParte	flicker	flick	1	520	2
27	21	Male	Right	A	22/11/2016	13:30:46	238	TrialQuartaParte	fossilise	oxygen	0	738	2
27	21	Male	Right	A	22/11/2016	13:30:46	239	TrialQuartaParte	defector	stamp	0	722	2
27	21	Male	Right	A	22/11/2016	13:30:46	240	TrialQuartaParte	foetal	fongs	2	836	1
27	21	Male	Right	A	22/11/2016	13:30:46	241	TrialQuartaParte	religious	sisby	2	543	1
27	21	Male	Right	A	22/11/2016	13:30:46	242	TrialQuartaParte	lively	licey	2	560	1
27	21	Male	Right	A	22/11/2016	13:30:46	243	TrialQuartaParte	gaseous	stilt	0	905	2
27	21	Male	Right	A	22/11/2016	13:30:46	244	TrialQuartaParte	turmoil	furm	2	731	2
27	21	Male	Right	A	22/11/2016	13:30:46	245	TrialQuartaParte	dragon	dron	2	668	2
27	21	Male	Right	A	22/11/2016	13:30:46	246	TrialQuartaParte	freeze	free	1	510	2
27	21	Male	Right	A	22/11/2016	13:30:46	247	TrialQuartaParte	gluteal	abtle	2	636	1
27	21	Male	Right	A	22/11/2016	13:30:46	248	TrialQuartaParte	bloody	blood	1	701	2
27	21	Male	Right	A	22/11/2016	13:30:46	249	TrialQuartaParte	brandy	brand	1	549	2
27	21	Male	Right	A	22/11/2016	13:30:46	250	TrialQuartaParte	watcher	angel	0	597	2
27	21	Male	Right	A	22/11/2016	13:30:46	251	TrialQuartaParte	swivel	quat	2	742	1
27	21	Male	Right	A	22/11/2016	13:30:46	252	TrialQuartaParte	armoury	arwor	2	535	1
27	21	Male	Right	A	22/11/2016	13:30:46	253	TrialQuartaParte	maximum	suyte	2	772	1
27	21	Male	Right	A	22/11/2016	13:30:46	254	TrialQuartaParte	bomber	bomb	1	762	2
27	21	Male	Right	A	22/11/2016	13:30:46	255	TrialQuartaParte	justify	extra	0	670	2
27	21	Male	Right	A	22/11/2016	13:30:46	256	TrialQuartaParte	moisture	stub	0	646	1
27	21	Male	Right	A	22/11/2016	13:30:46	257	TrialQuartaParte	gaiety	harse	2	643	1
27	21	Male	Right	A	22/11/2016	13:30:46	258	TrialQuartaParte	golfer	golf	1	566	1
27	21	Male	Right	A	22/11/2016	13:30:46	259	TrialQuartaParte	signet	sign	1	518	2
27	21	Male	Right	A	22/11/2016	13:30:46	260	TrialQuartaParte	gloomy	gloom	1	748	1
27	21	Male	Right	A	22/11/2016	13:30:46	261	TrialQuartaParte	pummel	syly	2	561	1
27	21	Male	Right	A	22/11/2016	13:30:46	262	TrialQuartaParte	tributary	calin	2	598	1
27	21	Male	Right	A	22/11/2016	13:30:46	263	TrialQuartaParte	missive	float	0	632	2
27	21	Male	Right	A	22/11/2016	13:30:46	264	TrialQuartaParte	trashy	rell	2	563	1
27	21	Male	Right	A	22/11/2016	13:30:46	265	TrialQuartaParte	anaesthetic	invest	0	642	2
27	21	Male	Right	A	22/11/2016	13:30:46	266	TrialQuartaParte	traffic	trepy	2	513	1
27	21	Male	Right	A	22/11/2016	13:30:46	267	TrialQuartaParte	widowed	widow	1	656	2
27	21	Male	Right	A	22/11/2016	13:30:46	268	TrialQuartaParte	amateurish	inhibit	0	811	2
27	21	Male	Right	A	22/11/2016	13:30:46	269	TrialQuartaParte	stroke	cligh	2	631	1
27	21	Male	Right	A	22/11/2016	13:30:46	270	TrialQuartaParte	murderous	invent	0	596	2
27	21	Male	Right	A	22/11/2016	13:30:46	271	TrialQuartaParte	pottage	posch	2	566	1
27	21	Male	Right	A	22/11/2016	13:30:46	272	TrialQuartaParte	fixture	strul	2	698	1
27	21	Male	Right	A	22/11/2016	13:30:46	273	TrialQuartaParte	sleet	slit	2	966	1
27	21	Male	Right	A	22/11/2016	13:30:46	274	TrialQuartaParte	snobbery	snotty	2	690	1
27	21	Male	Right	A	22/11/2016	13:30:46	275	TrialQuartaParte	fizzle	fizz	1	531	2
27	21	Male	Right	A	22/11/2016	13:30:46	276	TrialQuartaParte	asterix	cret	2	511	1
27	21	Male	Right	A	22/11/2016	13:30:46	277	TrialQuartaParte	steadily	ration	0	553	2
27	21	Male	Right	A	22/11/2016	13:30:46	278	TrialQuartaParte	vicarage	erupt	0	441	1
27	21	Male	Right	A	22/11/2016	13:30:46	279	TrialQuartaParte	extremism	liquid	0	518	2
27	21	Male	Right	A	22/11/2016	13:30:46	280	TrialQuartaParte	content	conly	2	618	1
27	21	Male	Right	A	22/11/2016	13:30:46	281	TrialQuartaParte	phoenix	blont	2	781	1
27	21	Male	Right	A	22/11/2016	13:30:46	282	TrialQuartaParte	crush	bemp	2	484	1
27	21	Male	Right	A	22/11/2016	13:30:46	283	TrialQuartaParte	neutron	whese	2	576	1
27	21	Male	Right	A	22/11/2016	13:30:46	284	TrialQuartaParte	poetry	poet	1	878	2
27	21	Male	Right	A	22/11/2016	13:30:46	285	TrialQuartaParte	fisher	fims	2	731	1
27	21	Male	Right	A	22/11/2016	13:30:46	286	TrialQuartaParte	instruction	demon	0	648	2
27	21	Male	Right	A	22/11/2016	13:30:46	287	TrialQuartaParte	centimetres	censar	2	587	1
27	21	Male	Right	A	22/11/2016	13:30:46	288	TrialQuartaParte	airtight	aith	2	530	1
27	21	Male	Right	A	22/11/2016	13:30:46	289	TrialQuartaParte	fatal	fids	2	531	1
27	21	Male	Right	A	22/11/2016	13:30:46	290	TrialQuartaParte	fleshy	flesh	1	483	1
27	21	Male	Right	A	22/11/2016	13:30:46	291	TrialQuartaParte	voucher	baron	0	689	2
27	21	Male	Right	A	22/11/2016	13:30:46	292	TrialQuartaParte	vertical	verks	2	572	1
27	21	Male	Right	A	22/11/2016	13:30:46	293	TrialQuartaParte	grossly	villa	0	1009	1
27	21	Male	Right	A	22/11/2016	13:30:46	294	TrialQuartaParte	tactile	tact	1	605	2
27	21	Male	Right	A	22/11/2016	13:30:46	295	TrialQuartaParte	tract	trep	2	1030	1
27	21	Male	Right	A	22/11/2016	13:30:46	296	TrialQuartaParte	geisha	crove	2	875	1
27	21	Male	Right	A	22/11/2016	13:30:46	297	TrialQuartaParte	blush	blif	2	428	1
27	21	Male	Right	A	22/11/2016	13:30:46	298	TrialQuartaParte	organic	organ	1	655	2
27	21	Male	Right	A	22/11/2016	13:30:46	299	TrialQuartaParte	viewer	view	1	720	2
27	21	Male	Right	A	22/11/2016	13:30:46	300	TrialQuartaParte	benignly	basil	0	465	1
