Subject	Age	Gender	Handedness	Rotation	Data	OraStart	TrialCount	TrialType	Prime	Target	Relatedness	rt	Resp
1	22	Female	Right	A	10/11/2016	13:25:40	1	Prova	wellness	well	4	45047	2
1	22	Female	Right	A	10/11/2016	13:25:40	2	Prova	homeless	home	4	0	2
1	22	Female	Right	A	10/11/2016	13:25:40	3	Prova	tricky	tricker	4	221	1
1	22	Female	Right	A	10/11/2016	13:25:40	4	Prova	character	char	4	251	2
1	22	Female	Right	A	10/11/2016	13:25:40	5	Prova	translater	pulter	4	578	2
1	22	Female	Right	A	10/11/2016	13:25:40	6	Prova2	escape	exat	4	792	1
1	22	Female	Right	A	10/11/2016	13:25:40	7	Prova2	investigator	invest	4	582	2
1	22	Female	Right	A	10/11/2016	13:25:40	8	Prova2	examiner	exam	4	447	2
1	22	Female	Right	A	10/11/2016	13:25:40	9	Prova2	topic	top	4	444	2
1	22	Female	Right	A	10/11/2016	13:25:40	1	Warmup	unpack	pack	5	597	2
1	22	Female	Right	A	10/11/2016	13:25:40	2	Warmup	tartare	tariff	5	541	2
1	22	Female	Right	A	10/11/2016	13:25:40	3	Warmup	cowrie	sturms	5	785	1
1	22	Female	Right	A	10/11/2016	13:25:40	4	Warmup	cortex	newbie	5	922	1
1	22	Female	Right	A	10/11/2016	13:25:40	5	Warmup	pullma	pulm	5	907	1
1	22	Female	Right	A	10/11/2016	13:25:40	1	TrialPrimaParte	benignly	basil	0	445	2
1	22	Female	Right	A	10/11/2016	13:25:40	2	TrialPrimaParte	narrowly	scull	0	715	2
1	22	Female	Right	A	10/11/2016	13:25:40	3	TrialPrimaParte	loyally	buzz	0	1030	2
1	22	Female	Right	A	10/11/2016	13:25:40	4	TrialPrimaParte	plonking	pluny	2	744	1
1	22	Female	Right	A	10/11/2016	13:25:40	5	TrialPrimaParte	fossilise	oxygen	0	630	2
1	22	Female	Right	A	10/11/2016	13:25:40	6	TrialPrimaParte	exemption	renew	0	718	2
1	22	Female	Right	A	10/11/2016	13:25:40	7	TrialPrimaParte	message	rosty	2	765	2
1	22	Female	Right	A	10/11/2016	13:25:40	8	TrialPrimaParte	opposition	nunfy	2	656	2
1	22	Female	Right	A	10/11/2016	13:25:40	9	TrialPrimaParte	helmet	helm	1	631	2
1	22	Female	Right	A	10/11/2016	13:25:40	10	TrialPrimaParte	ability	colon	0	588	2
1	22	Female	Right	A	10/11/2016	13:25:40	11	TrialPrimaParte	composer	alarm	0	627	2
1	22	Female	Right	A	10/11/2016	13:25:40	12	TrialPrimaParte	maternal	malern	2	816	1
1	22	Female	Right	A	10/11/2016	13:25:40	13	TrialPrimaParte	idealism	splint	0	869	2
1	22	Female	Right	A	10/11/2016	13:25:40	14	TrialPrimaParte	alcoholic	fruit	0	492	2
1	22	Female	Right	A	10/11/2016	13:25:40	15	TrialPrimaParte	fanatic	fanty	2	679	2
1	22	Female	Right	A	10/11/2016	13:25:40	16	TrialPrimaParte	vivacious	vicis	2	1121	1
1	22	Female	Right	A	10/11/2016	13:25:40	17	TrialPrimaParte	plastic	spaxe	2	659	1
1	22	Female	Right	A	10/11/2016	13:25:40	18	TrialPrimaParte	situation	govern	0	475	2
1	22	Female	Right	A	10/11/2016	13:25:40	19	TrialPrimaParte	faceless	facmod	2	442	2
1	22	Female	Right	A	10/11/2016	13:25:40	20	TrialPrimaParte	twitch	twit	1	618	2
1	22	Female	Right	A	10/11/2016	13:25:40	21	TrialPrimaParte	manual	mals	2	661	1
1	22	Female	Right	A	10/11/2016	13:25:40	22	TrialPrimaParte	signet	sign	1	469	2
1	22	Female	Right	A	10/11/2016	13:25:40	23	TrialPrimaParte	anaesthetic	invest	0	524	2
1	22	Female	Right	A	10/11/2016	13:25:40	24	TrialPrimaParte	creamy	cream	1	429	2
1	22	Female	Right	A	10/11/2016	13:25:40	25	TrialPrimaParte	snobbery	snotty	2	662	2
1	22	Female	Right	A	10/11/2016	13:25:40	26	TrialPrimaParte	supplant	plosy	2	764	2
1	22	Female	Right	A	10/11/2016	13:25:40	27	TrialPrimaParte	tendency	critic	0	561	2
1	22	Female	Right	A	10/11/2016	13:25:40	28	TrialPrimaParte	legacy	lecy	2	762	1
1	22	Female	Right	A	10/11/2016	13:25:40	29	TrialPrimaParte	foetal	fongs	2	633	1
1	22	Female	Right	A	10/11/2016	13:25:40	30	TrialPrimaParte	fizzle	fizz	1	557	2
1	22	Female	Right	A	10/11/2016	13:25:40	31	TrialPrimaParte	smuggle	smug	1	539	2
1	22	Female	Right	A	10/11/2016	13:25:40	32	TrialPrimaParte	missive	float	0	651	2
1	22	Female	Right	A	10/11/2016	13:25:40	33	TrialPrimaParte	hydration	povic	2	611	1
1	22	Female	Right	A	10/11/2016	13:25:40	34	TrialPrimaParte	toaster	toast	1	643	2
1	22	Female	Right	A	10/11/2016	13:25:40	35	TrialPrimaParte	twinkle	twin	1	644	2
1	22	Female	Right	A	10/11/2016	13:25:40	36	TrialPrimaParte	original	orive	2	788	1
1	22	Female	Right	A	10/11/2016	13:25:40	37	TrialPrimaParte	prosecution	leler	2	927	1
1	22	Female	Right	A	10/11/2016	13:25:40	38	TrialPrimaParte	shovel	shove	1	888	2
1	22	Female	Right	A	10/11/2016	13:25:40	39	TrialPrimaParte	tufted	tuft	1	880	1
1	22	Female	Right	A	10/11/2016	13:25:40	40	TrialPrimaParte	classic	clals	2	961	1
1	22	Female	Right	A	10/11/2016	13:25:40	41	TrialPrimaParte	skylight	skigh	2	776	2
1	22	Female	Right	A	10/11/2016	13:25:40	42	TrialPrimaParte	instruction	demon	0	604	2
1	22	Female	Right	A	10/11/2016	13:25:40	43	TrialPrimaParte	sniper	snip	1	582	2
1	22	Female	Right	A	10/11/2016	13:25:40	44	TrialPrimaParte	adopted	adopt	1	666	2
1	22	Female	Right	A	10/11/2016	13:25:40	45	TrialPrimaParte	damsel	dalp	2	845	2
1	22	Female	Right	A	10/11/2016	13:25:40	46	TrialPrimaParte	soften	soft	1	535	2
1	22	Female	Right	A	10/11/2016	13:25:40	47	TrialPrimaParte	jerkin	jerk	1	461	2
1	22	Female	Right	A	10/11/2016	13:25:40	48	TrialPrimaParte	existent	gruel	0	769	1
1	22	Female	Right	A	10/11/2016	13:25:40	49	TrialPrimaParte	calmness	artist	0	521	2
1	22	Female	Right	A	10/11/2016	13:25:40	50	TrialPrimaParte	smelly	thuly	2	834	1
1	22	Female	Right	A	10/11/2016	13:25:40	51	TrialPrimaParte	finally	teach	0	486	2
1	22	Female	Right	A	10/11/2016	13:25:40	52	TrialPrimaParte	bearded	beard	1	558	2
1	22	Female	Right	A	10/11/2016	13:25:40	53	TrialPrimaParte	snobby	snool	2	556	2
1	22	Female	Right	A	10/11/2016	13:25:40	54	TrialPrimaParte	golfer	golf	1	638	2
1	22	Female	Right	A	10/11/2016	13:25:40	55	TrialPrimaParte	scanner	rast	2	733	1
1	22	Female	Right	A	10/11/2016	13:25:40	56	TrialPrimaParte	criminal	huare	2	725	1
1	22	Female	Right	A	10/11/2016	13:25:40	57	TrialPrimaParte	heaven	heave	1	590	2
1	22	Female	Right	A	10/11/2016	13:25:40	58	TrialPrimaParte	talker	claf	2	520	2
1	22	Female	Right	A	10/11/2016	13:25:40	59	TrialPrimaParte	postage	poth	2	812	1
1	22	Female	Right	A	10/11/2016	13:25:40	60	TrialPrimaParte	stressful	abgaid	2	866	1
1	22	Female	Right	A	10/11/2016	13:25:40	61	TrialPrimaParte	chilly	chill	1	545	2
1	22	Female	Right	A	10/11/2016	13:25:40	62	TrialPrimaParte	organic	organ	1	539	2
1	22	Female	Right	A	10/11/2016	13:25:40	63	TrialPrimaParte	revolutionise	sivert	2	829	1
1	22	Female	Right	A	10/11/2016	13:25:40	64	TrialPrimaParte	sovereign	sovign	2	666	1
1	22	Female	Right	A	10/11/2016	13:25:40	65	TrialPrimaParte	inherent	inpock	2	676	1
1	22	Female	Right	A	10/11/2016	13:25:40	66	TrialPrimaParte	widowed	widow	1	460	2
1	22	Female	Right	A	10/11/2016	13:25:40	67	TrialPrimaParte	unspoilt	nalky	2	694	1
1	22	Female	Right	A	10/11/2016	13:25:40	68	TrialPrimaParte	nymphet	nymph	1	551	2
1	22	Female	Right	A	10/11/2016	13:25:40	69	TrialPrimaParte	public	pub	1	442	2
1	22	Female	Right	A	10/11/2016	13:25:40	70	TrialPrimaParte	freeze	free	1	547	2
1	22	Female	Right	A	10/11/2016	13:25:40	71	TrialPrimaParte	stirrup	stir	1	593	2
1	22	Female	Right	A	10/11/2016	13:25:40	72	TrialPrimaParte	geisha	crove	2	600	2
1	22	Female	Right	A	10/11/2016	13:25:40	73	TrialPrimaParte	ample	amp	1	591	1
1	22	Female	Right	A	10/11/2016	13:25:40	74	TrialPrimaParte	rumbling	ether	0	899	2
1	22	Female	Right	A	10/11/2016	13:25:40	75	TrialPrimaParte	watcher	angel	0	529	2
1	22	Female	Right	A	10/11/2016	13:25:40	76	TrialSecondaParte	religious	sisby	2	905	2
1	22	Female	Right	A	10/11/2016	13:25:40	77	TrialSecondaParte	scrape	scrap	1	609	2
1	22	Female	Right	A	10/11/2016	13:25:40	78	TrialSecondaParte	fabulous	smaply	2	915	1
1	22	Female	Right	A	10/11/2016	13:25:40	79	TrialSecondaParte	bomber	bomb	1	549	2
1	22	Female	Right	A	10/11/2016	13:25:40	80	TrialSecondaParte	portal	balp	2	617	2
1	22	Female	Right	A	10/11/2016	13:25:40	81	TrialSecondaParte	production	depart	0	663	2
1	22	Female	Right	A	10/11/2016	13:25:40	82	TrialSecondaParte	dusty	dusy	2	853	1
1	22	Female	Right	A	10/11/2016	13:25:40	83	TrialSecondaParte	deficit	dety	2	855	1
1	22	Female	Right	A	10/11/2016	13:25:40	84	TrialSecondaParte	risky	risk	1	520	2
1	22	Female	Right	A	10/11/2016	13:25:40	85	TrialSecondaParte	absurdity	plain	0	497	2
1	22	Female	Right	A	10/11/2016	13:25:40	86	TrialSecondaParte	haulier	halfe	2	537	1
1	22	Female	Right	A	10/11/2016	13:25:40	87	TrialSecondaParte	phoenix	blont	2	696	2
1	22	Female	Right	A	10/11/2016	13:25:40	88	TrialSecondaParte	tributary	calin	2	710	1
1	22	Female	Right	A	10/11/2016	13:25:40	89	TrialSecondaParte	graphic	blamp	2	748	2
1	22	Female	Right	A	10/11/2016	13:25:40	90	TrialSecondaParte	highlight	gylpo	2	613	2
1	22	Female	Right	A	10/11/2016	13:25:40	91	TrialSecondaParte	linkage	flion	2	542	2
1	22	Female	Right	A	10/11/2016	13:25:40	92	TrialSecondaParte	defector	stamp	0	731	2
1	22	Female	Right	A	10/11/2016	13:25:40	93	TrialSecondaParte	category	cagre	2	586	1
1	22	Female	Right	A	10/11/2016	13:25:40	94	TrialSecondaParte	bulbous	bulb	1	493	2
1	22	Female	Right	A	10/11/2016	13:25:40	95	TrialSecondaParte	turmoil	furm	2	679	1
1	22	Female	Right	A	10/11/2016	13:25:40	96	TrialSecondaParte	grossly	villa	0	681	2
1	22	Female	Right	A	10/11/2016	13:25:40	97	TrialSecondaParte	amateurish	inhibit	0	735	2
1	22	Female	Right	A	10/11/2016	13:25:40	98	TrialSecondaParte	feathery	drunk	0	510	2
1	22	Female	Right	A	10/11/2016	13:25:40	99	TrialSecondaParte	tactile	tact	1	465	2
1	22	Female	Right	A	10/11/2016	13:25:40	100	TrialSecondaParte	rabbit	rabbi	1	539	1
1	22	Female	Right	A	10/11/2016	13:25:40	101	TrialSecondaParte	cranky	crony	2	432	2
1	22	Female	Right	A	10/11/2016	13:25:40	102	TrialSecondaParte	difference	difrol	2	576	1
1	22	Female	Right	A	10/11/2016	13:25:40	103	TrialSecondaParte	dialog	dial	1	618	2
1	22	Female	Right	A	10/11/2016	13:25:40	104	TrialSecondaParte	glade	glad	1	439	2
1	22	Female	Right	A	10/11/2016	13:25:40	105	TrialSecondaParte	novelty	surge	0	698	2
1	22	Female	Right	A	10/11/2016	13:25:40	106	TrialSecondaParte	wearily	diet	0	513	2
1	22	Female	Right	A	10/11/2016	13:25:40	107	TrialSecondaParte	anxiously	legend	0	558	2
1	22	Female	Right	A	10/11/2016	13:25:40	108	TrialSecondaParte	monastery	fagor	2	571	2
1	22	Female	Right	A	10/11/2016	13:25:40	109	TrialSecondaParte	biscuit	bist	2	774	2
1	22	Female	Right	A	10/11/2016	13:25:40	110	TrialSecondaParte	fatal	fids	2	519	1
1	22	Female	Right	A	10/11/2016	13:25:40	111	TrialSecondaParte	sleet	slit	2	505	2
1	22	Female	Right	A	10/11/2016	13:25:40	112	TrialSecondaParte	crummy	meye	2	585	1
1	22	Female	Right	A	10/11/2016	13:25:40	113	TrialSecondaParte	griffin	spoff	2	1005	1
1	22	Female	Right	A	10/11/2016	13:25:40	114	TrialSecondaParte	gloomy	gloom	1	643	2
1	22	Female	Right	A	10/11/2016	13:25:40	115	TrialSecondaParte	galaxy	gala	1	777	2
1	22	Female	Right	A	10/11/2016	13:25:40	116	TrialSecondaParte	crikey	brize	2	751	2
1	22	Female	Right	A	10/11/2016	13:25:40	117	TrialSecondaParte	veteran	venic	2	754	1
1	22	Female	Right	A	10/11/2016	13:25:40	118	TrialSecondaParte	forceps	force	1	645	2
1	22	Female	Right	A	10/11/2016	13:25:40	119	TrialSecondaParte	epileptic	candid	0	486	2
1	22	Female	Right	A	10/11/2016	13:25:40	120	TrialSecondaParte	itinerary	itiner	2	601	2
1	22	Female	Right	A	10/11/2016	13:25:40	121	TrialSecondaParte	snobbish	green	0	515	2
1	22	Female	Right	A	10/11/2016	13:25:40	122	TrialSecondaParte	revolutionary	intern	0	582	2
1	22	Female	Right	A	10/11/2016	13:25:40	123	TrialSecondaParte	nincompoops	ninpoo	2	590	1
1	22	Female	Right	A	10/11/2016	13:25:40	124	TrialSecondaParte	bourbon	boun	2	737	1
1	22	Female	Right	A	10/11/2016	13:25:40	125	TrialSecondaParte	united	unit	1	597	2
1	22	Female	Right	A	10/11/2016	13:25:40	126	TrialSecondaParte	pottage	posch	2	562	2
1	22	Female	Right	A	10/11/2016	13:25:40	127	TrialSecondaParte	brandy	brand	1	543	2
1	22	Female	Right	A	10/11/2016	13:25:40	128	TrialSecondaParte	enactment	cloud	0	569	2
1	22	Female	Right	A	10/11/2016	13:25:40	129	TrialSecondaParte	perhaps	again	0	557	2
1	22	Female	Right	A	10/11/2016	13:25:40	130	TrialSecondaParte	treaty	treat	1	457	2
1	22	Female	Right	A	10/11/2016	13:25:40	131	TrialSecondaParte	moisture	stub	0	504	2
1	22	Female	Right	A	10/11/2016	13:25:40	132	TrialSecondaParte	foundry	brisk	0	756	2
1	22	Female	Right	A	10/11/2016	13:25:40	133	TrialSecondaParte	guilty	guilt	1	498	2
1	22	Female	Right	A	10/11/2016	13:25:40	134	TrialSecondaParte	desert	dert	2	561	1
1	22	Female	Right	A	10/11/2016	13:25:40	135	TrialSecondaParte	archer	arch	1	587	2
1	22	Female	Right	A	10/11/2016	13:25:40	136	TrialSecondaParte	cousin	coul	2	659	1
1	22	Female	Right	A	10/11/2016	13:25:40	137	TrialSecondaParte	mimicry	quiet	0	470	2
1	22	Female	Right	A	10/11/2016	13:25:40	138	TrialSecondaParte	stroke	cligh	2	560	1
1	22	Female	Right	A	10/11/2016	13:25:40	139	TrialSecondaParte	olympic	olick	2	657	2
1	22	Female	Right	A	10/11/2016	13:25:40	140	TrialSecondaParte	daring	dalig	2	596	1
1	22	Female	Right	A	10/11/2016	13:25:40	141	TrialSecondaParte	plucky	pluck	1	489	2
1	22	Female	Right	A	10/11/2016	13:25:40	142	TrialSecondaParte	utter	uls	2	606	1
1	22	Female	Right	A	10/11/2016	13:25:40	143	TrialSecondaParte	stunt	stun	1	576	2
1	22	Female	Right	A	10/11/2016	13:25:40	144	TrialSecondaParte	education	educon	2	503	2
1	22	Female	Right	A	10/11/2016	13:25:40	145	TrialSecondaParte	friendly	north	0	567	2
1	22	Female	Right	A	10/11/2016	13:25:40	146	TrialSecondaParte	gastric	waser	2	536	2
1	22	Female	Right	A	10/11/2016	13:25:40	147	TrialSecondaParte	lethal	lerd	2	502	1
1	22	Female	Right	A	10/11/2016	13:25:40	148	TrialSecondaParte	kinetic	kinse	2	598	1
1	22	Female	Right	A	10/11/2016	13:25:40	149	TrialSecondaParte	believer	append	0	579	2
1	22	Female	Right	A	10/11/2016	13:25:40	150	TrialSecondaParte	citation	fuse	0	548	1
1	22	Female	Right	A	10/11/2016	13:25:40	151	TrialTerzaParte	blush	blif	2	628	2
1	22	Female	Right	A	10/11/2016	13:25:40	152	TrialTerzaParte	awaken	tood	2	578	2
1	22	Female	Right	A	10/11/2016	13:25:40	153	TrialTerzaParte	extremism	liquid	0	550	2
1	22	Female	Right	A	10/11/2016	13:25:40	154	TrialTerzaParte	socialiser	flepity	2	567	1
1	22	Female	Right	A	10/11/2016	13:25:40	155	TrialTerzaParte	validity	infant	0	491	2
1	22	Female	Right	A	10/11/2016	13:25:40	156	TrialTerzaParte	moulder	moure	2	485	1
1	22	Female	Right	A	10/11/2016	13:25:40	157	TrialTerzaParte	number	numb	1	468	2
1	22	Female	Right	A	10/11/2016	13:25:40	158	TrialTerzaParte	engage	yurd	2	448	1
1	22	Female	Right	A	10/11/2016	13:25:40	159	TrialTerzaParte	tract	trep	2	391	2
1	22	Female	Right	A	10/11/2016	13:25:40	160	TrialTerzaParte	plush	plus	1	402	2
1	22	Female	Right	A	10/11/2016	13:25:40	161	TrialTerzaParte	fleshy	flesh	1	373	2
1	22	Female	Right	A	10/11/2016	13:25:40	162	TrialTerzaParte	early	earl	1	453	2
1	22	Female	Right	A	10/11/2016	13:25:40	163	TrialTerzaParte	vertical	verks	2	564	1
1	22	Female	Right	A	10/11/2016	13:25:40	164	TrialTerzaParte	broiler	plum	0	415	2
1	22	Female	Right	A	10/11/2016	13:25:40	165	TrialTerzaParte	polite	tind	2	680	1
1	22	Female	Right	A	10/11/2016	13:25:40	166	TrialTerzaParte	gaiety	harse	2	811	2
1	22	Female	Right	A	10/11/2016	13:25:40	167	TrialTerzaParte	quartz	quart	1	410	2
1	22	Female	Right	A	10/11/2016	13:25:40	168	TrialTerzaParte	warfare	broth	0	521	2
1	22	Female	Right	A	10/11/2016	13:25:40	169	TrialTerzaParte	swotting	chuly	2	605	1
1	22	Female	Right	A	10/11/2016	13:25:40	170	TrialTerzaParte	abstract	fewtu	2	614	1
1	22	Female	Right	A	10/11/2016	13:25:40	171	TrialTerzaParte	service	count	0	529	1
1	22	Female	Right	A	10/11/2016	13:25:40	172	TrialTerzaParte	ribbon	ribed	2	452	2
1	22	Female	Right	A	10/11/2016	13:25:40	173	TrialTerzaParte	jauntily	scald	0	438	2
1	22	Female	Right	A	10/11/2016	13:25:40	174	TrialTerzaParte	equally	comma	0	581	1
1	22	Female	Right	A	10/11/2016	13:25:40	175	TrialTerzaParte	passel	turp	2	461	2
1	22	Female	Right	A	10/11/2016	13:25:40	176	TrialTerzaParte	lively	licey	2	538	1
1	22	Female	Right	A	10/11/2016	13:25:40	177	TrialTerzaParte	planet	plan	1	461	2
1	22	Female	Right	A	10/11/2016	13:25:40	178	TrialTerzaParte	tamponade	ruffy	2	534	2
1	22	Female	Right	A	10/11/2016	13:25:40	179	TrialTerzaParte	fibrosis	shuar	2	603	1
1	22	Female	Right	A	10/11/2016	13:25:40	180	TrialTerzaParte	distantly	facet	0	541	1
1	22	Female	Right	A	10/11/2016	13:25:40	181	TrialTerzaParte	advisory	advock	2	423	2
1	22	Female	Right	A	10/11/2016	13:25:40	182	TrialTerzaParte	trashy	rell	2	585	2
1	22	Female	Right	A	10/11/2016	13:25:40	183	TrialTerzaParte	starter	disc	0	482	2
1	22	Female	Right	A	10/11/2016	13:25:40	184	TrialTerzaParte	shunt	shun	1	563	2
1	22	Female	Right	A	10/11/2016	13:25:40	185	TrialTerzaParte	muffin	mufir	2	510	1
1	22	Female	Right	A	10/11/2016	13:25:40	186	TrialTerzaParte	rancour	brits	2	466	1
1	22	Female	Right	A	10/11/2016	13:25:40	187	TrialTerzaParte	sensuous	secly	2	524	1
1	22	Female	Right	A	10/11/2016	13:25:40	188	TrialTerzaParte	paternal	siter	2	564	2
1	22	Female	Right	A	10/11/2016	13:25:40	189	TrialTerzaParte	selfless	audit	0	749	1
1	22	Female	Right	A	10/11/2016	13:25:40	190	TrialTerzaParte	trainee	train	1	455	2
1	22	Female	Right	A	10/11/2016	13:25:40	191	TrialTerzaParte	answer	anwe	2	884	1
1	22	Female	Right	A	10/11/2016	13:25:40	192	TrialTerzaParte	ceramic	cerbs	2	421	2
1	22	Female	Right	A	10/11/2016	13:25:40	193	TrialTerzaParte	traffic	trepy	2	508	1
1	22	Female	Right	A	10/11/2016	13:25:40	194	TrialTerzaParte	putty	putt	1	498	1
1	22	Female	Right	A	10/11/2016	13:25:40	195	TrialTerzaParte	mosaic	mip	2	554	1
1	22	Female	Right	A	10/11/2016	13:25:40	196	TrialTerzaParte	analogy	anopy	2	479	1
1	22	Female	Right	A	10/11/2016	13:25:40	197	TrialTerzaParte	content	conly	2	527	1
1	22	Female	Right	A	10/11/2016	13:25:40	198	TrialTerzaParte	pulpit	pulp	1	381	2
1	22	Female	Right	A	10/11/2016	13:25:40	199	TrialTerzaParte	justify	extra	0	487	2
1	22	Female	Right	A	10/11/2016	13:25:40	200	TrialTerzaParte	piratical	pirent	2	632	1
1	22	Female	Right	A	10/11/2016	13:25:40	201	TrialTerzaParte	genetic	genth	2	466	1
1	22	Female	Right	A	10/11/2016	13:25:40	202	TrialTerzaParte	timidly	arse	0	636	1
1	22	Female	Right	A	10/11/2016	13:25:40	203	TrialTerzaParte	vigilant	vigan	2	668	1
1	22	Female	Right	A	10/11/2016	13:25:40	204	TrialTerzaParte	poetry	poet	1	433	2
1	22	Female	Right	A	10/11/2016	13:25:40	205	TrialTerzaParte	struggled	neigh	0	434	1
1	22	Female	Right	A	10/11/2016	13:25:40	206	TrialTerzaParte	gluteal	abtle	2	441	1
1	22	Female	Right	A	10/11/2016	13:25:40	207	TrialTerzaParte	plunder	acre	0	583	2
1	22	Female	Right	A	10/11/2016	13:25:40	208	TrialTerzaParte	repertory	repty	2	591	2
1	22	Female	Right	A	10/11/2016	13:25:40	209	TrialTerzaParte	child	sild	2	578	1
1	22	Female	Right	A	10/11/2016	13:25:40	210	TrialTerzaParte	booklet	text	0	620	2
1	22	Female	Right	A	10/11/2016	13:25:40	211	TrialTerzaParte	culprit	cuti	2	596	2
1	22	Female	Right	A	10/11/2016	13:25:40	212	TrialTerzaParte	edible	esigh	2	544	1
1	22	Female	Right	A	10/11/2016	13:25:40	213	TrialTerzaParte	friar	blyr	2	566	1
1	22	Female	Right	A	10/11/2016	13:25:40	214	TrialTerzaParte	raffle	rafel	2	463	1
1	22	Female	Right	A	10/11/2016	13:25:40	215	TrialTerzaParte	coaster	coast	1	443	2
1	22	Female	Right	A	10/11/2016	13:25:40	216	TrialTerzaParte	obviously	secret	0	464	2
1	22	Female	Right	A	10/11/2016	13:25:40	217	TrialTerzaParte	addition	employ	0	602	2
1	22	Female	Right	A	10/11/2016	13:25:40	218	TrialTerzaParte	upstart	pumy	2	449	2
1	22	Female	Right	A	10/11/2016	13:25:40	219	TrialTerzaParte	steadily	ration	0	549	2
1	22	Female	Right	A	10/11/2016	13:25:40	220	TrialTerzaParte	yardage	yage	2	450	1
1	22	Female	Right	A	10/11/2016	13:25:40	221	TrialTerzaParte	suburban	elect	0	534	2
1	22	Female	Right	A	10/11/2016	13:25:40	222	TrialTerzaParte	penguin	phorb	2	488	1
1	22	Female	Right	A	10/11/2016	13:25:40	223	TrialTerzaParte	illicit	ilkis	2	538	1
1	22	Female	Right	A	10/11/2016	13:25:40	224	TrialTerzaParte	gravel	flixy	2	597	1
1	22	Female	Right	A	10/11/2016	13:25:40	225	TrialTerzaParte	voucher	baron	0	539	2
1	22	Female	Right	A	10/11/2016	13:25:40	226	TrialQuartaParte	asterix	cret	2	964	2
1	22	Female	Right	A	10/11/2016	13:25:40	227	TrialQuartaParte	pummel	syly	2	541	1
1	22	Female	Right	A	10/11/2016	13:25:40	228	TrialQuartaParte	signal	quir	2	605	2
1	22	Female	Right	A	10/11/2016	13:25:40	229	TrialQuartaParte	marshy	marsh	1	494	1
1	22	Female	Right	A	10/11/2016	13:25:40	230	TrialQuartaParte	syphilis	ruar	2	574	1
1	22	Female	Right	A	10/11/2016	13:25:40	231	TrialQuartaParte	medical	surf	0	536	2
1	22	Female	Right	A	10/11/2016	13:25:40	232	TrialQuartaParte	vengeful	cherb	2	716	1
1	22	Female	Right	A	10/11/2016	13:25:40	233	TrialQuartaParte	mourner	mourn	1	493	2
1	22	Female	Right	A	10/11/2016	13:25:40	234	TrialQuartaParte	lectureship	parent	0	531	2
1	22	Female	Right	A	10/11/2016	13:25:40	235	TrialQuartaParte	absence	agsel	2	419	1
1	22	Female	Right	A	10/11/2016	13:25:40	236	TrialQuartaParte	irony	iron	1	414	2
1	22	Female	Right	A	10/11/2016	13:25:40	237	TrialQuartaParte	jetty	kuty	2	557	1
1	22	Female	Right	A	10/11/2016	13:25:40	238	TrialQuartaParte	equipment	agree	0	483	2
1	22	Female	Right	A	10/11/2016	13:25:40	239	TrialQuartaParte	sufferer	gloss	0	582	2
1	22	Female	Right	A	10/11/2016	13:25:40	240	TrialQuartaParte	routeing	tomed	2	553	1
1	22	Female	Right	A	10/11/2016	13:25:40	241	TrialQuartaParte	airtight	aith	2	519	1
1	22	Female	Right	A	10/11/2016	13:25:40	242	TrialQuartaParte	power	mord	2	620	1
1	22	Female	Right	A	10/11/2016	13:25:40	243	TrialQuartaParte	weird	weir	1	370	2
1	22	Female	Right	A	10/11/2016	13:25:40	244	TrialQuartaParte	fisher	fims	2	471	1
1	22	Female	Right	A	10/11/2016	13:25:40	245	TrialQuartaParte	simplify	fleet	0	474	2
1	22	Female	Right	A	10/11/2016	13:25:40	246	TrialQuartaParte	masonry	dream	0	501	2
1	22	Female	Right	A	10/11/2016	13:25:40	247	TrialQuartaParte	developer	court	0	532	2
1	22	Female	Right	A	10/11/2016	13:25:40	248	TrialQuartaParte	vicarage	erupt	0	569	2
1	22	Female	Right	A	10/11/2016	13:25:40	249	TrialQuartaParte	merrier	merks	2	449	1
1	22	Female	Right	A	10/11/2016	13:25:40	250	TrialQuartaParte	murderous	invent	0	474	2
1	22	Female	Right	A	10/11/2016	13:25:40	251	TrialQuartaParte	gaseous	stilt	0	515	2
1	22	Female	Right	A	10/11/2016	13:25:40	252	TrialQuartaParte	neutron	whese	2	727	1
1	22	Female	Right	A	10/11/2016	13:25:40	253	TrialQuartaParte	crush	bemp	2	633	1
1	22	Female	Right	A	10/11/2016	13:25:40	254	TrialQuartaParte	viewer	view	1	467	2
1	22	Female	Right	A	10/11/2016	13:25:40	255	TrialQuartaParte	crooked	crook	1	475	2
1	22	Female	Right	A	10/11/2016	13:25:40	256	TrialQuartaParte	reliable	blidar	2	771	1
1	22	Female	Right	A	10/11/2016	13:25:40	257	TrialQuartaParte	centimetres	censar	2	477	2
1	22	Female	Right	A	10/11/2016	13:25:40	258	TrialQuartaParte	bloody	blood	1	489	2
1	22	Female	Right	A	10/11/2016	13:25:40	259	TrialQuartaParte	trumpet	trump	1	438	2
1	22	Female	Right	A	10/11/2016	13:25:40	260	TrialQuartaParte	killer	lalf	2	476	1
1	22	Female	Right	A	10/11/2016	13:25:40	261	TrialQuartaParte	scrooge	plich	2	701	1
1	22	Female	Right	A	10/11/2016	13:25:40	262	TrialQuartaParte	acidic	acid	1	447	2
1	22	Female	Right	A	10/11/2016	13:25:40	263	TrialQuartaParte	clanger	spant	2	464	2
1	22	Female	Right	A	10/11/2016	13:25:40	264	TrialQuartaParte	sudden	verty	2	432	1
1	22	Female	Right	A	10/11/2016	13:25:40	265	TrialQuartaParte	actually	quest	0	550	2
1	22	Female	Right	A	10/11/2016	13:25:40	266	TrialQuartaParte	bubble	glef	2	406	1
1	22	Female	Right	A	10/11/2016	13:25:40	267	TrialQuartaParte	whisker	whisk	1	592	2
1	22	Female	Right	A	10/11/2016	13:25:40	268	TrialQuartaParte	physical	react	0	622	2
1	22	Female	Right	A	10/11/2016	13:25:40	269	TrialQuartaParte	fixture	strul	2	585	1
1	22	Female	Right	A	10/11/2016	13:25:40	270	TrialQuartaParte	dreadful	phone	0	627	2
1	22	Female	Right	A	10/11/2016	13:25:40	271	TrialQuartaParte	button	butt	1	466	1
1	22	Female	Right	A	10/11/2016	13:25:40	272	TrialQuartaParte	dragon	dron	2	540	2
1	22	Female	Right	A	10/11/2016	13:25:40	273	TrialQuartaParte	tackler	lerf	2	517	1
1	22	Female	Right	A	10/11/2016	13:25:40	274	TrialQuartaParte	dysentery	ranin	2	604	1
1	22	Female	Right	A	10/11/2016	13:25:40	275	TrialQuartaParte	trolley	troll	1	451	2
1	22	Female	Right	A	10/11/2016	13:25:40	276	TrialQuartaParte	halogen	haly	2	650	1
1	22	Female	Right	A	10/11/2016	13:25:40	277	TrialQuartaParte	farcical	farxy	2	425	1
1	22	Female	Right	A	10/11/2016	13:25:40	278	TrialQuartaParte	rebound	cous	2	633	1
1	22	Female	Right	A	10/11/2016	13:25:40	279	TrialQuartaParte	grouse	gruf	2	533	1
1	22	Female	Right	A	10/11/2016	13:25:40	280	TrialQuartaParte	decision	posig	2	521	1
1	22	Female	Right	A	10/11/2016	13:25:40	281	TrialQuartaParte	ambush	amshy	2	565	1
1	22	Female	Right	A	10/11/2016	13:25:40	282	TrialQuartaParte	swivel	quat	2	449	2
1	22	Female	Right	A	10/11/2016	13:25:40	283	TrialQuartaParte	armoury	arwor	2	521	1
1	22	Female	Right	A	10/11/2016	13:25:40	284	TrialQuartaParte	summit	sutty	2	737	2
1	22	Female	Right	A	10/11/2016	13:25:40	285	TrialQuartaParte	palpably	amen	0	617	2
1	22	Female	Right	A	10/11/2016	13:25:40	286	TrialQuartaParte	squawk	squaw	1	761	1
1	22	Female	Right	A	10/11/2016	13:25:40	287	TrialQuartaParte	hatchery	fighy	2	618	1
1	22	Female	Right	A	10/11/2016	13:25:40	288	TrialQuartaParte	unique	unzed	2	599	1
1	22	Female	Right	A	10/11/2016	13:25:40	289	TrialQuartaParte	abstain	abter	2	619	1
1	22	Female	Right	A	10/11/2016	13:25:40	290	TrialQuartaParte	hearty	heart	1	466	2
1	22	Female	Right	A	10/11/2016	13:25:40	291	TrialQuartaParte	crafty	craft	1	561	2
1	22	Female	Right	A	10/11/2016	13:25:40	292	TrialQuartaParte	dweller	crypt	0	509	1
1	22	Female	Right	A	10/11/2016	13:25:40	293	TrialQuartaParte	filthy	filth	1	701	2
1	22	Female	Right	A	10/11/2016	13:25:40	294	TrialQuartaParte	scruffy	thick	0	523	2
1	22	Female	Right	A	10/11/2016	13:25:40	295	TrialQuartaParte	passant	pasks	2	573	1
1	22	Female	Right	A	10/11/2016	13:25:40	296	TrialQuartaParte	gluten	glut	1	426	2
1	22	Female	Right	A	10/11/2016	13:25:40	297	TrialQuartaParte	maximum	suyte	2	541	1
1	22	Female	Right	A	10/11/2016	13:25:40	298	TrialQuartaParte	boarder	board	1	685	2
1	22	Female	Right	A	10/11/2016	13:25:40	299	TrialQuartaParte	sight	sigh	1	484	2
1	22	Female	Right	A	10/11/2016	13:25:40	300	TrialQuartaParte	flicker	flick	1	548	2
