Subject	Age	Gender	Handedness	Rotation	Data	OraStart	TrialCount	TrialType	Prime	Target	Relatedness	rt	Resp
52	23	Female	Right	B	07/09/2017	15:59:46	1	Prova	wellness	well	4	1286	2
52	23	Female	Right	B	07/09/2017	15:59:46	2	Prova	homeless	home	4	839	2
52	23	Female	Right	B	07/09/2017	15:59:46	3	Prova	tricky	tricker	4	1950	1
52	23	Female	Right	B	07/09/2017	15:59:46	4	Prova	character	char	4	1165	1
52	23	Female	Right	B	07/09/2017	15:59:46	5	Prova	translater	pulter	4	1192	1
52	23	Female	Right	B	07/09/2017	15:59:46	6	Prova2	escape	exat	4	1647	1
52	23	Female	Right	B	07/09/2017	15:59:46	7	Prova2	investigator	invest	4	729	2
52	23	Female	Right	B	07/09/2017	15:59:46	8	Prova2	examiner	exam	4	642	2
52	23	Female	Right	B	07/09/2017	15:59:46	9	Prova2	topic	top	4	570	2
52	23	Female	Right	B	07/09/2017	15:59:46	1	Warmup	unpack	pack	5	643	2
52	23	Female	Right	B	07/09/2017	15:59:46	2	Warmup	tartare	tariff	5	1108	1
52	23	Female	Right	B	07/09/2017	15:59:46	3	Warmup	cowrie	sturms	5	1290	2
52	23	Female	Right	B	07/09/2017	15:59:46	4	Warmup	cortex	newbie	5	997	2
52	23	Female	Right	B	07/09/2017	15:59:46	5	Warmup	pullma	pulm	5	985	1
52	23	Female	Right	B	07/09/2017	15:59:46	1	TrialPrimaParte	damsel	dalp	2	765	1
52	23	Female	Right	B	07/09/2017	15:59:46	2	TrialPrimaParte	extract	extra	1	569	2
52	23	Female	Right	B	07/09/2017	15:59:46	3	TrialPrimaParte	reaction	react	1	541	2
52	23	Female	Right	B	07/09/2017	15:59:46	4	TrialPrimaParte	angelic	angel	1	542	2
52	23	Female	Right	B	07/09/2017	15:59:46	5	TrialPrimaParte	grueling	gruel	1	1330	2
52	23	Female	Right	B	07/09/2017	15:59:46	6	TrialPrimaParte	gastric	waser	2	1129	2
52	23	Female	Right	B	07/09/2017	15:59:46	7	TrialPrimaParte	facetious	facet	1	1691	2
52	23	Female	Right	B	07/09/2017	15:59:46	8	TrialPrimaParte	opposition	nunfy	2	1056	1
52	23	Female	Right	B	07/09/2017	15:59:46	9	TrialPrimaParte	legendary	legend	1	622	2
52	23	Female	Right	B	07/09/2017	15:59:46	10	TrialPrimaParte	talker	claf	2	1138	1
52	23	Female	Right	B	07/09/2017	15:59:46	11	TrialPrimaParte	editor	plan	0	692	2
52	23	Female	Right	B	07/09/2017	15:59:46	12	TrialPrimaParte	stilted	stilt	1	1517	1
52	23	Female	Right	B	07/09/2017	15:59:46	13	TrialPrimaParte	child	sild	2	927	1
52	23	Female	Right	B	07/09/2017	15:59:46	14	TrialPrimaParte	firmly	heave	0	557	2
52	23	Female	Right	B	07/09/2017	15:59:46	15	TrialPrimaParte	mosaic	mip	2	843	1
52	23	Female	Right	B	07/09/2017	15:59:46	16	TrialPrimaParte	keeper	gala	0	793	2
52	23	Female	Right	B	07/09/2017	15:59:46	17	TrialPrimaParte	oxygenate	oxygen	1	652	2
52	23	Female	Right	B	07/09/2017	15:59:46	18	TrialPrimaParte	bourbon	boun	2	1397	1
52	23	Female	Right	B	07/09/2017	15:59:46	19	TrialPrimaParte	stroke	cligh	2	1278	1
52	23	Female	Right	B	07/09/2017	15:59:46	20	TrialPrimaParte	feudal	arch	0	782	2
52	23	Female	Right	B	07/09/2017	15:59:46	21	TrialPrimaParte	villain	villa	1	1546	1
52	23	Female	Right	B	07/09/2017	15:59:46	22	TrialPrimaParte	downs	risk	0	639	2
52	23	Female	Right	B	07/09/2017	15:59:46	23	TrialPrimaParte	lethal	lerd	2	849	1
52	23	Female	Right	B	07/09/2017	15:59:46	24	TrialPrimaParte	watery	cream	0	617	2
52	23	Female	Right	B	07/09/2017	15:59:46	25	TrialPrimaParte	tripper	mourn	0	1721	2
52	23	Female	Right	B	07/09/2017	15:59:46	26	TrialPrimaParte	fishy	putt	0	1261	1
52	23	Female	Right	B	07/09/2017	15:59:46	27	TrialPrimaParte	reliable	blidar	2	823	1
52	23	Female	Right	B	07/09/2017	15:59:46	28	TrialPrimaParte	fuselage	fuse	1	2002	-1
52	23	Female	Right	B	07/09/2017	15:59:46	29	TrialPrimaParte	lately	dial	0	919	2
52	23	Female	Right	B	07/09/2017	15:59:46	30	TrialPrimaParte	inherent	inpock	2	796	1
52	23	Female	Right	B	07/09/2017	15:59:46	31	TrialPrimaParte	maximum	suyte	2	610	1
52	23	Female	Right	B	07/09/2017	15:59:46	32	TrialPrimaParte	surface	surf	1	574	2
52	23	Female	Right	B	07/09/2017	15:59:46	33	TrialPrimaParte	polite	tind	2	1007	2
52	23	Female	Right	B	07/09/2017	15:59:46	34	TrialPrimaParte	lovers	flesh	0	1361	1
52	23	Female	Right	B	07/09/2017	15:59:46	35	TrialPrimaParte	thinly	golf	0	657	2
52	23	Female	Right	B	07/09/2017	15:59:46	36	TrialPrimaParte	acreage	acre	1	1427	2
52	23	Female	Right	B	07/09/2017	15:59:46	37	TrialPrimaParte	friar	blyr	2	985	1
52	23	Female	Right	B	07/09/2017	15:59:46	38	TrialPrimaParte	hourly	snip	0	745	1
52	23	Female	Right	B	07/09/2017	15:59:46	39	TrialPrimaParte	folder	heart	0	617	2
52	23	Female	Right	B	07/09/2017	15:59:46	40	TrialPrimaParte	candidacy	candid	1	691	2
52	23	Female	Right	B	07/09/2017	15:59:46	41	TrialPrimaParte	artistry	artist	1	648	2
52	23	Female	Right	B	07/09/2017	15:59:46	42	TrialPrimaParte	cryptic	crypt	1	1036	2
52	23	Female	Right	B	07/09/2017	15:59:46	43	TrialPrimaParte	fanatic	fanty	2	1149	1
52	23	Female	Right	B	07/09/2017	15:59:46	44	TrialPrimaParte	touchy	fizz	0	1114	2
52	23	Female	Right	B	07/09/2017	15:59:46	45	TrialPrimaParte	muffler	coast	0	735	2
52	23	Female	Right	B	07/09/2017	15:59:46	46	TrialPrimaParte	drunkard	drunk	1	651	2
52	23	Female	Right	B	07/09/2017	15:59:46	47	TrialPrimaParte	rancour	brits	2	701	1
52	23	Female	Right	B	07/09/2017	15:59:46	48	TrialPrimaParte	roller	quart	0	935	1
52	23	Female	Right	B	07/09/2017	15:59:46	49	TrialPrimaParte	cousin	coul	2	810	2
52	23	Female	Right	B	07/09/2017	15:59:46	50	TrialPrimaParte	phonetic	phone	1	756	2
52	23	Female	Right	B	07/09/2017	15:59:46	51	TrialPrimaParte	stubborn	stub	1	881	1
52	23	Female	Right	B	07/09/2017	15:59:46	52	TrialPrimaParte	edible	esigh	2	957	1
52	23	Female	Right	B	07/09/2017	15:59:46	53	TrialPrimaParte	ribbon	ribed	2	756	1
52	23	Female	Right	B	07/09/2017	15:59:46	54	TrialPrimaParte	manly	weir	0	879	1
52	23	Female	Right	B	07/09/2017	15:59:46	55	TrialPrimaParte	naughty	troll	0	728	1
52	23	Female	Right	B	07/09/2017	15:59:46	56	TrialPrimaParte	summit	sutty	2	707	1
52	23	Female	Right	B	07/09/2017	15:59:46	57	TrialPrimaParte	legacy	lecy	2	953	1
52	23	Female	Right	B	07/09/2017	15:59:46	58	TrialPrimaParte	vainly	craft	0	706	2
52	23	Female	Right	B	07/09/2017	15:59:46	59	TrialPrimaParte	widen	amp	0	1016	1
52	23	Female	Right	B	07/09/2017	15:59:46	60	TrialPrimaParte	coyness	whisk	0	918	2
52	23	Female	Right	B	07/09/2017	15:59:46	61	TrialPrimaParte	armoury	arwor	2	1013	2
52	23	Female	Right	B	07/09/2017	15:59:46	62	TrialPrimaParte	dragon	dron	2	1336	1
52	23	Female	Right	B	07/09/2017	15:59:46	63	TrialPrimaParte	spindly	tact	0	723	2
52	23	Female	Right	B	07/09/2017	15:59:46	64	TrialPrimaParte	lessen	bomb	0	797	2
52	23	Female	Right	B	07/09/2017	15:59:46	65	TrialPrimaParte	heroic	soft	0	619	2
52	23	Female	Right	B	07/09/2017	15:59:46	66	TrialPrimaParte	splinter	splint	1	839	1
52	23	Female	Right	B	07/09/2017	15:59:46	67	TrialPrimaParte	supplant	plosy	2	978	1
52	23	Female	Right	B	07/09/2017	15:59:46	68	TrialPrimaParte	formal	guilt	0	862	2
52	23	Female	Right	B	07/09/2017	15:59:46	69	TrialPrimaParte	plaintiff	plain	1	730	2
52	23	Female	Right	B	07/09/2017	15:59:46	70	TrialPrimaParte	unique	unzed	2	659	1
52	23	Female	Right	B	07/09/2017	15:59:46	71	TrialPrimaParte	desert	dert	2	619	1
52	23	Female	Right	B	07/09/2017	15:59:46	72	TrialPrimaParte	question	quest	1	807	2
52	23	Female	Right	B	07/09/2017	15:59:46	73	TrialPrimaParte	acutely	nymph	0	1106	2
52	23	Female	Right	B	07/09/2017	15:59:46	74	TrialPrimaParte	greenery	green	1	693	2
52	23	Female	Right	B	07/09/2017	15:59:46	75	TrialPrimaParte	discern	disc	1	694	2
52	23	Female	Right	B	07/09/2017	15:59:46	76	TrialSecondaParte	agreement	agree	1	891	2
52	23	Female	Right	B	07/09/2017	15:59:46	77	TrialSecondaParte	penguin	phorb	2	719	1
52	23	Female	Right	B	07/09/2017	15:59:46	78	TrialSecondaParte	signal	quir	2	854	1
52	23	Female	Right	B	07/09/2017	15:59:46	79	TrialSecondaParte	centimetres	censar	2	936	1
52	23	Female	Right	B	07/09/2017	15:59:46	80	TrialSecondaParte	postage	poth	2	681	1
52	23	Female	Right	B	07/09/2017	15:59:46	81	TrialSecondaParte	brothel	broth	1	889	2
52	23	Female	Right	B	07/09/2017	15:59:46	82	TrialSecondaParte	absence	agsel	2	725	1
52	23	Female	Right	B	07/09/2017	15:59:46	83	TrialSecondaParte	revolutionise	sivert	2	819	1
52	23	Female	Right	B	07/09/2017	15:59:46	84	TrialSecondaParte	brisket	brisk	1	912	1
52	23	Female	Right	B	07/09/2017	15:59:46	85	TrialSecondaParte	gaiety	harse	2	1165	2
52	23	Female	Right	B	07/09/2017	15:59:46	86	TrialSecondaParte	tamponade	ruffy	2	716	1
52	23	Female	Right	B	07/09/2017	15:59:46	87	TrialSecondaParte	farcical	farxy	2	975	1
52	23	Female	Right	B	07/09/2017	15:59:46	88	TrialSecondaParte	abstract	fewtu	2	878	1
52	23	Female	Right	B	07/09/2017	15:59:46	89	TrialSecondaParte	message	rosty	2	1089	1
52	23	Female	Right	B	07/09/2017	15:59:46	90	TrialSecondaParte	tackler	lerf	2	1006	1
52	23	Female	Right	B	07/09/2017	15:59:46	91	TrialSecondaParte	airtight	aith	2	634	1
52	23	Female	Right	B	07/09/2017	15:59:46	92	TrialSecondaParte	utter	uls	2	546	1
52	23	Female	Right	B	07/09/2017	15:59:46	93	TrialSecondaParte	yearly	acid	0	831	2
52	23	Female	Right	B	07/09/2017	15:59:46	94	TrialSecondaParte	lively	licey	2	832	1
52	23	Female	Right	B	07/09/2017	15:59:46	95	TrialSecondaParte	clanger	spant	2	618	1
52	23	Female	Right	B	07/09/2017	15:59:46	96	TrialSecondaParte	international	intern	1	652	2
52	23	Female	Right	B	07/09/2017	15:59:46	97	TrialSecondaParte	bubble	glef	2	1041	1
52	23	Female	Right	B	07/09/2017	15:59:46	98	TrialSecondaParte	colonel	colon	1	625	2
52	23	Female	Right	B	07/09/2017	15:59:46	99	TrialSecondaParte	appendix	append	1	1114	1
52	23	Female	Right	B	07/09/2017	15:59:46	100	TrialSecondaParte	turmoil	furm	2	749	1
52	23	Female	Right	B	07/09/2017	15:59:46	101	TrialSecondaParte	education	educon	2	856	1
52	23	Female	Right	B	07/09/2017	15:59:46	102	TrialSecondaParte	hydration	povic	2	636	1
52	23	Female	Right	B	07/09/2017	15:59:46	103	TrialSecondaParte	snobby	snool	2	831	1
52	23	Female	Right	B	07/09/2017	15:59:46	104	TrialSecondaParte	deficit	dety	2	747	1
52	23	Female	Right	B	07/09/2017	15:59:46	105	TrialSecondaParte	cheaply	twin	0	744	2
52	23	Female	Right	B	07/09/2017	15:59:46	106	TrialSecondaParte	misty	stun	0	809	1
52	23	Female	Right	B	07/09/2017	15:59:46	107	TrialSecondaParte	difference	difrol	2	899	1
52	23	Female	Right	B	07/09/2017	15:59:46	108	TrialSecondaParte	ranger	view	0	732	2
52	23	Female	Right	B	07/09/2017	15:59:46	109	TrialSecondaParte	dealer	poet	0	726	2
52	23	Female	Right	B	07/09/2017	15:59:46	110	TrialSecondaParte	demonstrate	demon	1	605	2
52	23	Female	Right	B	07/09/2017	15:59:46	111	TrialSecondaParte	vivacious	vicis	2	919	1
52	23	Female	Right	B	07/09/2017	15:59:46	112	TrialSecondaParte	passel	turp	2	957	1
52	23	Female	Right	B	07/09/2017	15:59:46	113	TrialSecondaParte	plonking	pluny	2	885	1
52	23	Female	Right	B	07/09/2017	15:59:46	114	TrialSecondaParte	thicket	thick	1	688	2
52	23	Female	Right	B	07/09/2017	15:59:46	115	TrialSecondaParte	sudden	verty	2	739	1
52	23	Female	Right	B	07/09/2017	15:59:46	116	TrialSecondaParte	yardage	yage	2	781	1
52	23	Female	Right	B	07/09/2017	15:59:46	117	TrialSecondaParte	leftist	bulb	0	687	2
52	23	Female	Right	B	07/09/2017	15:59:46	118	TrialSecondaParte	stressful	abgaid	2	1011	1
52	23	Female	Right	B	07/09/2017	15:59:46	119	TrialSecondaParte	manual	mals	2	838	1
52	23	Female	Right	B	07/09/2017	15:59:46	120	TrialSecondaParte	hatchery	fighy	2	623	2
52	23	Female	Right	B	07/09/2017	15:59:46	121	TrialSecondaParte	silken	tuft	0	1143	1
52	23	Female	Right	B	07/09/2017	15:59:46	122	TrialSecondaParte	paternal	siter	2	1420	2
52	23	Female	Right	B	07/09/2017	15:59:46	123	TrialSecondaParte	foetal	fongs	2	770	1
52	23	Female	Right	B	07/09/2017	15:59:46	124	TrialSecondaParte	courteous	court	1	859	2
52	23	Female	Right	B	07/09/2017	15:59:46	125	TrialSecondaParte	fabulous	smaply	2	1076	2
52	23	Female	Right	B	07/09/2017	15:59:46	126	TrialSecondaParte	infantry	infant	1	618	2
52	23	Female	Right	B	07/09/2017	15:59:46	127	TrialSecondaParte	crush	bemp	2	965	2
52	23	Female	Right	B	07/09/2017	15:59:46	128	TrialSecondaParte	kinetic	kinse	2	1361	2
52	23	Female	Right	B	07/09/2017	15:59:46	129	TrialSecondaParte	finely	chill	0	661	2
52	23	Female	Right	B	07/09/2017	15:59:46	130	TrialSecondaParte	golden	free	0	637	2
52	23	Female	Right	B	07/09/2017	15:59:46	131	TrialSecondaParte	graphic	blamp	2	1230	1
52	23	Female	Right	B	07/09/2017	15:59:46	132	TrialSecondaParte	liquidate	liquid	1	490	2
52	23	Female	Right	B	07/09/2017	15:59:46	133	TrialSecondaParte	neighbour	neigh	1	891	1
52	23	Female	Right	B	07/09/2017	15:59:46	134	TrialSecondaParte	vertical	verks	2	872	1
52	23	Female	Right	B	07/09/2017	15:59:46	135	TrialSecondaParte	filmy	plus	0	777	1
52	23	Female	Right	B	07/09/2017	15:59:46	136	TrialSecondaParte	fixture	strul	2	978	1
52	23	Female	Right	B	07/09/2017	15:59:46	137	TrialSecondaParte	swivel	quat	2	786	1
52	23	Female	Right	B	07/09/2017	15:59:46	138	TrialSecondaParte	twelfth	smug	0	981	2
52	23	Female	Right	B	07/09/2017	15:59:46	139	TrialSecondaParte	secretary	secret	1	562	2
52	23	Female	Right	B	07/09/2017	15:59:46	140	TrialSecondaParte	northern	north	1	682	2
52	23	Female	Right	B	07/09/2017	15:59:46	141	TrialSecondaParte	dusty	dusy	2	864	1
52	23	Female	Right	B	07/09/2017	15:59:46	142	TrialSecondaParte	harden	filth	0	939	2
52	23	Female	Right	B	07/09/2017	15:59:46	143	TrialSecondaParte	active	blood	0	575	2
52	23	Female	Right	B	07/09/2017	15:59:46	144	TrialSecondaParte	buzzard	buzz	1	563	2
52	23	Female	Right	B	07/09/2017	15:59:46	145	TrialSecondaParte	genetic	genth	2	960	1
52	23	Female	Right	B	07/09/2017	15:59:46	146	TrialSecondaParte	arsenal	arse	1	1067	2
52	23	Female	Right	B	07/09/2017	15:59:46	147	TrialSecondaParte	angler	treat	0	634	2
52	23	Female	Right	B	07/09/2017	15:59:46	148	TrialSecondaParte	gluteal	abtle	2	871	1
52	23	Female	Right	B	07/09/2017	15:59:46	149	TrialSecondaParte	factual	board	0	535	2
52	23	Female	Right	B	07/09/2017	15:59:46	150	TrialSecondaParte	adviser	flick	0	544	2
52	23	Female	Right	B	07/09/2017	15:59:46	151	TrialTerzaParte	unspoilt	nalky	2	2001	-1
52	23	Female	Right	B	07/09/2017	15:59:46	152	TrialTerzaParte	within	earl	0	2001	-1
52	23	Female	Right	B	07/09/2017	15:59:46	153	TrialTerzaParte	upstart	pumy	2	758	1
52	23	Female	Right	B	07/09/2017	15:59:46	154	TrialTerzaParte	geisha	crove	2	846	1
52	23	Female	Right	B	07/09/2017	15:59:46	155	TrialTerzaParte	investigate	invest	1	1355	2
52	23	Female	Right	B	07/09/2017	15:59:46	156	TrialTerzaParte	scalding	scald	1	964	1
52	23	Female	Right	B	07/09/2017	15:59:46	157	TrialTerzaParte	government	govern	1	553	2
52	23	Female	Right	B	07/09/2017	15:59:46	158	TrialTerzaParte	fisher	fims	2	739	2
52	23	Female	Right	B	07/09/2017	15:59:46	159	TrialTerzaParte	prayer	butt	0	901	2
52	23	Female	Right	B	07/09/2017	15:59:46	160	TrialTerzaParte	socialiser	flepity	2	1173	1
52	23	Female	Right	B	07/09/2017	15:59:46	161	TrialTerzaParte	fatal	fids	2	786	1
52	23	Female	Right	B	07/09/2017	15:59:46	162	TrialTerzaParte	syphilis	ruar	2	722	1
52	23	Female	Right	B	07/09/2017	15:59:46	163	TrialTerzaParte	routeing	tomed	2	1309	2
52	23	Female	Right	B	07/09/2017	15:59:46	164	TrialTerzaParte	halogen	haly	2	1008	1
52	23	Female	Right	B	07/09/2017	15:59:46	165	TrialTerzaParte	skylight	skigh	2	769	1
52	23	Female	Right	B	07/09/2017	15:59:46	166	TrialTerzaParte	tricky	shove	0	828	2
52	23	Female	Right	B	07/09/2017	15:59:46	167	TrialTerzaParte	inventory	invent	1	608	2
52	23	Female	Right	B	07/09/2017	15:59:46	168	TrialTerzaParte	traffic	trepy	2	934	1
52	23	Female	Right	B	07/09/2017	15:59:46	169	TrialTerzaParte	prudish	force	0	651	2
52	23	Female	Right	B	07/09/2017	15:59:46	170	TrialTerzaParte	faceless	facmod	2	980	1
52	23	Female	Right	B	07/09/2017	15:59:46	171	TrialTerzaParte	electron	elect	1	732	2
52	23	Female	Right	B	07/09/2017	15:59:46	172	TrialTerzaParte	quieten	quiet	1	513	2
52	23	Female	Right	B	07/09/2017	15:59:46	173	TrialTerzaParte	muffin	mufir	2	685	1
52	23	Female	Right	B	07/09/2017	15:59:46	174	TrialTerzaParte	itinerary	itiner	2	1642	2
52	23	Female	Right	B	07/09/2017	15:59:46	175	TrialTerzaParte	brutal	helm	0	718	2
52	23	Female	Right	B	07/09/2017	15:59:46	176	TrialTerzaParte	fibrosis	shuar	2	737	1
52	23	Female	Right	B	07/09/2017	15:59:46	177	TrialTerzaParte	snobbery	snotty	2	945	1
52	23	Female	Right	B	07/09/2017	15:59:46	178	TrialTerzaParte	advisory	advock	2	806	2
52	23	Female	Right	B	07/09/2017	15:59:46	179	TrialTerzaParte	neutron	whese	2	986	2
52	23	Female	Right	B	07/09/2017	15:59:46	180	TrialTerzaParte	cranky	crony	2	1140	1
52	23	Female	Right	B	07/09/2017	15:59:46	181	TrialTerzaParte	plumage	plum	1	697	2
52	23	Female	Right	B	07/09/2017	15:59:46	182	TrialTerzaParte	itchy	shun	0	838	1
52	23	Female	Right	B	07/09/2017	15:59:46	183	TrialTerzaParte	phoenix	blont	2	941	2
52	23	Female	Right	B	07/09/2017	15:59:46	184	TrialTerzaParte	happy	sigh	0	1166	2
52	23	Female	Right	B	07/09/2017	15:59:46	185	TrialTerzaParte	olympic	olick	2	775	1
52	23	Female	Right	B	07/09/2017	15:59:46	186	TrialTerzaParte	others	unit	0	674	2
52	23	Female	Right	B	07/09/2017	15:59:46	187	TrialTerzaParte	winger	pluck	0	824	1
52	23	Female	Right	B	07/09/2017	15:59:46	188	TrialTerzaParte	ceramic	cerbs	2	711	1
52	23	Female	Right	B	07/09/2017	15:59:46	189	TrialTerzaParte	griffin	spoff	2	788	1
52	23	Female	Right	B	07/09/2017	15:59:46	190	TrialTerzaParte	glossary	gloss	1	738	2
52	23	Female	Right	B	07/09/2017	15:59:46	191	TrialTerzaParte	gifted	pulp	0	714	2
52	23	Female	Right	B	07/09/2017	15:59:46	192	TrialTerzaParte	buoyant	stir	0	715	2
52	23	Female	Right	B	07/09/2017	15:59:46	193	TrialTerzaParte	thinker	beard	0	795	2
52	23	Female	Right	B	07/09/2017	15:59:46	194	TrialTerzaParte	baronet	baron	1	650	2
52	23	Female	Right	B	07/09/2017	15:59:46	195	TrialTerzaParte	linkage	flion	2	849	1
52	23	Female	Right	B	07/09/2017	15:59:46	196	TrialTerzaParte	against	again	1	571	2
52	23	Female	Right	B	07/09/2017	15:59:46	197	TrialTerzaParte	rebound	cous	2	1231	1
52	23	Female	Right	B	07/09/2017	15:59:46	198	TrialTerzaParte	biscuit	bist	2	1235	1
52	23	Female	Right	B	07/09/2017	15:59:46	199	TrialTerzaParte	passant	pasks	2	895	1
52	23	Female	Right	B	07/09/2017	15:59:46	200	TrialTerzaParte	nincompoops	ninpoo	2	889	1
52	23	Female	Right	B	07/09/2017	15:59:46	201	TrialTerzaParte	renewable	renew	1	1650	2
52	23	Female	Right	B	07/09/2017	15:59:46	202	TrialTerzaParte	power	mord	2	1229	1
52	23	Female	Right	B	07/09/2017	15:59:46	203	TrialTerzaParte	blush	blif	2	791	1
52	23	Female	Right	B	07/09/2017	15:59:46	204	TrialTerzaParte	answer	anwe	2	1091	1
52	23	Female	Right	B	07/09/2017	15:59:46	205	TrialTerzaParte	country	count	1	624	2
52	23	Female	Right	B	07/09/2017	15:59:46	206	TrialTerzaParte	scrooge	plich	2	726	1
52	23	Female	Right	B	07/09/2017	15:59:46	207	TrialTerzaParte	cookery	train	0	644	2
52	23	Female	Right	B	07/09/2017	15:59:46	208	TrialTerzaParte	ambush	amshy	2	1136	1
52	23	Female	Right	B	07/09/2017	15:59:46	209	TrialTerzaParte	chatter	trump	0	669	2
52	23	Female	Right	B	07/09/2017	15:59:46	210	TrialTerzaParte	sensuous	secly	2	794	1
52	23	Female	Right	B	07/09/2017	15:59:46	211	TrialTerzaParte	sovereign	sovign	2	921	1
52	23	Female	Right	B	07/09/2017	15:59:46	212	TrialTerzaParte	tract	trep	2	668	1
52	23	Female	Right	B	07/09/2017	15:59:46	213	TrialTerzaParte	piratical	pirent	2	948	1
52	23	Female	Right	B	07/09/2017	15:59:46	214	TrialTerzaParte	surgeon	surge	1	722	2
52	23	Female	Right	B	07/09/2017	15:59:46	215	TrialTerzaParte	tributary	calin	2	1042	1
52	23	Female	Right	B	07/09/2017	15:59:46	216	TrialTerzaParte	culprit	cuti	2	927	1
52	23	Female	Right	B	07/09/2017	15:59:46	217	TrialTerzaParte	floater	float	1	654	2
52	23	Female	Right	B	07/09/2017	15:59:46	218	TrialTerzaParte	gently	pub	0	945	1
52	23	Female	Right	B	07/09/2017	15:59:46	219	TrialTerzaParte	parenthesis	parent	1	598	2
52	23	Female	Right	B	07/09/2017	15:59:46	220	TrialTerzaParte	veteran	venic	2	982	1
52	23	Female	Right	B	07/09/2017	15:59:46	221	TrialTerzaParte	really	numb	0	724	2
52	23	Female	Right	B	07/09/2017	15:59:46	222	TrialTerzaParte	crummy	meye	2	837	1
52	23	Female	Right	B	07/09/2017	15:59:46	223	TrialTerzaParte	jetty	kuty	2	701	1
52	23	Female	Right	B	07/09/2017	15:59:46	224	TrialTerzaParte	dietary	diet	1	646	2
52	23	Female	Right	B	07/09/2017	15:59:46	225	TrialTerzaParte	monastery	fagor	2	812	2
52	23	Female	Right	B	07/09/2017	15:59:46	226	TrialQuartaParte	moulder	moure	2	842	1
52	23	Female	Right	B	07/09/2017	15:59:46	227	TrialQuartaParte	cloudless	cloud	1	647	2
52	23	Female	Right	B	07/09/2017	15:59:46	228	TrialQuartaParte	crikey	brize	2	934	1
52	23	Female	Right	B	07/09/2017	15:59:46	229	TrialQuartaParte	miller	gloom	0	636	2
52	23	Female	Right	B	07/09/2017	15:59:46	230	TrialQuartaParte	vengeful	cherb	2	998	1
52	23	Female	Right	B	07/09/2017	15:59:46	231	TrialQuartaParte	category	cagre	2	857	1
52	23	Female	Right	B	07/09/2017	15:59:46	232	TrialQuartaParte	teacher	teach	1	622	2
52	23	Female	Right	B	07/09/2017	15:59:46	233	TrialQuartaParte	maternal	malern	2	1063	1
52	23	Female	Right	B	07/09/2017	15:59:46	234	TrialQuartaParte	merrier	merks	2	1225	2
52	23	Female	Right	B	07/09/2017	15:59:46	235	TrialQuartaParte	engage	yurd	2	1002	1
52	23	Female	Right	B	07/09/2017	15:59:46	236	TrialQuartaParte	kingdom	adopt	0	741	2
52	23	Female	Right	B	07/09/2017	15:59:46	237	TrialQuartaParte	rational	ration	1	806	2
52	23	Female	Right	B	07/09/2017	15:59:46	238	TrialQuartaParte	pottery	crook	0	1409	2
52	23	Female	Right	B	07/09/2017	15:59:46	239	TrialQuartaParte	grouse	gruf	2	1156	1
52	23	Female	Right	B	07/09/2017	15:59:46	240	TrialQuartaParte	haulier	halfe	2	1155	1
52	23	Female	Right	B	07/09/2017	15:59:46	241	TrialQuartaParte	employer	employ	1	970	2
52	23	Female	Right	B	07/09/2017	15:59:46	242	TrialQuartaParte	illicit	ilkis	2	801	1
52	23	Female	Right	B	07/09/2017	15:59:46	243	TrialQuartaParte	scullery	scull	1	957	1
52	23	Female	Right	B	07/09/2017	15:59:46	244	TrialQuartaParte	thorny	marsh	0	975	1
52	23	Female	Right	B	07/09/2017	15:59:46	245	TrialQuartaParte	asterix	cret	2	760	1
52	23	Female	Right	B	07/09/2017	15:59:46	246	TrialQuartaParte	stampede	stamp	1	637	2
52	23	Female	Right	B	07/09/2017	15:59:46	247	TrialQuartaParte	vigilant	vigan	2	935	1
52	23	Female	Right	B	07/09/2017	15:59:46	248	TrialQuartaParte	amenable	amen	1	812	2
52	23	Female	Right	B	07/09/2017	15:59:46	249	TrialQuartaParte	gravel	flixy	2	760	2
52	23	Female	Right	B	07/09/2017	15:59:46	250	TrialQuartaParte	oddity	squaw	0	967	2
52	23	Female	Right	B	07/09/2017	15:59:46	251	TrialQuartaParte	pummel	syly	2	781	1
52	23	Female	Right	B	07/09/2017	15:59:46	252	TrialQuartaParte	department	depart	1	963	2
52	23	Female	Right	B	07/09/2017	15:59:46	253	TrialQuartaParte	daring	dalig	2	753	1
52	23	Female	Right	B	07/09/2017	15:59:46	254	TrialQuartaParte	cuffs	glad	0	667	2
52	23	Female	Right	B	07/09/2017	15:59:46	255	TrialQuartaParte	abstain	abter	2	805	1
52	23	Female	Right	B	07/09/2017	15:59:46	256	TrialQuartaParte	dysentery	ranin	2	1178	1
52	23	Female	Right	B	07/09/2017	15:59:46	257	TrialQuartaParte	critical	critic	1	777	2
52	23	Female	Right	B	07/09/2017	15:59:46	258	TrialQuartaParte	ethereal	ether	1	913	2
52	23	Female	Right	B	07/09/2017	15:59:46	259	TrialQuartaParte	raffle	rafel	2	1197	1
52	23	Female	Right	B	07/09/2017	15:59:46	260	TrialQuartaParte	twisty	jerk	0	824	2
52	23	Female	Right	B	07/09/2017	15:59:46	261	TrialQuartaParte	beastly	widow	0	959	2
52	23	Female	Right	B	07/09/2017	15:59:46	262	TrialQuartaParte	safely	brand	0	886	2
52	23	Female	Right	B	07/09/2017	15:59:46	263	TrialQuartaParte	killer	lalf	2	879	1
52	23	Female	Right	B	07/09/2017	15:59:46	264	TrialQuartaParte	criminal	huare	2	1287	1
52	23	Female	Right	B	07/09/2017	15:59:46	265	TrialQuartaParte	wishful	toast	0	542	2
52	23	Female	Right	B	07/09/2017	15:59:46	266	TrialQuartaParte	command	comma	1	781	2
52	23	Female	Right	B	07/09/2017	15:59:46	267	TrialQuartaParte	inhibitory	inhibit	1	676	2
52	23	Female	Right	B	07/09/2017	15:59:46	268	TrialQuartaParte	trashy	rell	2	925	1
52	23	Female	Right	B	07/09/2017	15:59:46	269	TrialQuartaParte	ninety	scrap	0	1107	1
52	23	Female	Right	B	07/09/2017	15:59:46	270	TrialQuartaParte	bridal	glut	0	835	2
52	23	Female	Right	B	07/09/2017	15:59:46	271	TrialQuartaParte	lesser	twit	0	1042	1
52	23	Female	Right	B	07/09/2017	15:59:46	272	TrialQuartaParte	awaken	tood	2	1278	1
52	23	Female	Right	B	07/09/2017	15:59:46	273	TrialQuartaParte	decision	posig	2	1500	1
52	23	Female	Right	B	07/09/2017	15:59:46	274	TrialQuartaParte	weekly	rabbi	0	716	1
52	23	Female	Right	B	07/09/2017	15:59:46	275	TrialQuartaParte	fleeting	fleet	1	1086	1
52	23	Female	Right	B	07/09/2017	15:59:46	276	TrialQuartaParte	basilisk	basil	1	811	2
52	23	Female	Right	B	07/09/2017	15:59:46	277	TrialQuartaParte	repertory	repty	2	1233	1
52	23	Female	Right	B	07/09/2017	15:59:46	278	TrialQuartaParte	smelly	thuly	2	771	1
52	23	Female	Right	B	07/09/2017	15:59:46	279	TrialQuartaParte	leaflet	organ	0	605	2
52	23	Female	Right	B	07/09/2017	15:59:46	280	TrialQuartaParte	alarming	alarm	1	597	2
52	23	Female	Right	B	07/09/2017	15:59:46	281	TrialQuartaParte	analogy	anopy	2	669	1
52	23	Female	Right	B	07/09/2017	15:59:46	282	TrialQuartaParte	content	conly	2	1023	1
52	23	Female	Right	B	07/09/2017	15:59:46	283	TrialQuartaParte	scanner	rast	2	898	1
52	23	Female	Right	B	07/09/2017	15:59:46	284	TrialQuartaParte	textile	text	1	537	2
52	23	Female	Right	B	07/09/2017	15:59:46	285	TrialQuartaParte	prosecution	leler	2	593	1
52	23	Female	Right	B	07/09/2017	15:59:46	286	TrialQuartaParte	sandy	iron	0	609	2
52	23	Female	Right	B	07/09/2017	15:59:46	287	TrialQuartaParte	classic	clals	2	656	1
52	23	Female	Right	B	07/09/2017	15:59:46	288	TrialQuartaParte	pottage	posch	2	724	1
52	23	Female	Right	B	07/09/2017	15:59:46	289	TrialQuartaParte	eruption	erupt	1	633	2
52	23	Female	Right	B	07/09/2017	15:59:46	290	TrialQuartaParte	swotting	chuly	2	635	1
52	23	Female	Right	B	07/09/2017	15:59:46	291	TrialQuartaParte	frosty	sign	0	653	2
52	23	Female	Right	B	07/09/2017	15:59:46	292	TrialQuartaParte	plastic	spaxe	2	582	1
52	23	Female	Right	B	07/09/2017	15:59:46	293	TrialQuartaParte	fruitless	fruit	1	556	2
52	23	Female	Right	B	07/09/2017	15:59:46	294	TrialQuartaParte	religious	sisby	2	667	1
52	23	Female	Right	B	07/09/2017	15:59:46	295	TrialQuartaParte	dreamer	dream	1	532	2
52	23	Female	Right	B	07/09/2017	15:59:46	296	TrialQuartaParte	audition	audit	1	586	2
52	23	Female	Right	B	07/09/2017	15:59:46	297	TrialQuartaParte	sleet	slit	2	800	1
52	23	Female	Right	B	07/09/2017	15:59:46	298	TrialQuartaParte	original	orive	2	800	1
52	23	Female	Right	B	07/09/2017	15:59:46	299	TrialQuartaParte	portal	balp	2	653	1
52	23	Female	Right	B	07/09/2017	15:59:46	300	TrialQuartaParte	highlight	gylpo	2	594	1
