Subject	Age	Gender	Handedness	Rotation	Data	OraStart	TrialCount	TrialType	Prime	Target	Relatedness	rt	Resp
4	24	Male	Right	B	09/11/2016	11:08:47	1	Prova	wellness	well	4	555	2
4	24	Male	Right	B	09/11/2016	11:08:47	2	Prova	homeless	home	4	612	2
4	24	Male	Right	B	09/11/2016	11:08:47	3	Prova	tricky	tricker	4	543	2
4	24	Male	Right	B	09/11/2016	11:08:47	4	Prova	character	char	4	745	1
4	24	Male	Right	B	09/11/2016	11:08:47	5	Prova	translater	pulter	4	755	2
4	24	Male	Right	B	09/11/2016	11:08:47	6	Prova2	escape	exat	4	745	1
4	24	Male	Right	B	09/11/2016	11:08:47	7	Prova2	investigator	invest	4	623	2
4	24	Male	Right	B	09/11/2016	11:08:47	8	Prova2	examiner	exam	4	739	2
4	24	Male	Right	B	09/11/2016	11:08:47	9	Prova2	topic	top	4	566	2
4	24	Male	Right	B	09/11/2016	11:08:47	1	Warmup	unpack	pack	5	466	2
4	24	Male	Right	B	09/11/2016	11:08:47	2	Warmup	tartare	tariff	5	954	2
4	24	Male	Right	B	09/11/2016	11:08:47	3	Warmup	cowrie	sturms	5	1033	2
4	24	Male	Right	B	09/11/2016	11:08:47	4	Warmup	cortex	newbie	5	609	2
4	24	Male	Right	B	09/11/2016	11:08:47	5	Warmup	pullma	pulm	5	700	1
4	24	Male	Right	B	09/11/2016	11:08:47	1	TrialPrimaParte	roller	quart	0	603	2
4	24	Male	Right	B	09/11/2016	11:08:47	2	TrialPrimaParte	edible	esigh	2	833	1
4	24	Male	Right	B	09/11/2016	11:08:47	3	TrialPrimaParte	brothel	broth	1	671	2
4	24	Male	Right	B	09/11/2016	11:08:47	4	TrialPrimaParte	highlight	gylpo	2	838	1
4	24	Male	Right	B	09/11/2016	11:08:47	5	TrialPrimaParte	chatter	trump	0	550	2
4	24	Male	Right	B	09/11/2016	11:08:47	6	TrialPrimaParte	trashy	rell	2	818	1
4	24	Male	Right	B	09/11/2016	11:08:47	7	TrialPrimaParte	lively	licey	2	1024	1
4	24	Male	Right	B	09/11/2016	11:08:47	8	TrialPrimaParte	inhibitory	inhibit	1	1239	2
4	24	Male	Right	B	09/11/2016	11:08:47	9	TrialPrimaParte	muffin	mufir	2	676	1
4	24	Male	Right	B	09/11/2016	11:08:47	10	TrialPrimaParte	phonetic	phone	1	551	2
4	24	Male	Right	B	09/11/2016	11:08:47	11	TrialPrimaParte	command	comma	1	603	2
4	24	Male	Right	B	09/11/2016	11:08:47	12	TrialPrimaParte	audition	audit	1	644	2
4	24	Male	Right	B	09/11/2016	11:08:47	13	TrialPrimaParte	gaiety	harse	2	630	2
4	24	Male	Right	B	09/11/2016	11:08:47	14	TrialPrimaParte	upstart	pumy	2	692	1
4	24	Male	Right	B	09/11/2016	11:08:47	15	TrialPrimaParte	yardage	yage	2	893	1
4	24	Male	Right	B	09/11/2016	11:08:47	16	TrialPrimaParte	beastly	widow	0	765	2
4	24	Male	Right	B	09/11/2016	11:08:47	17	TrialPrimaParte	snobby	snool	2	840	1
4	24	Male	Right	B	09/11/2016	11:08:47	18	TrialPrimaParte	quieten	quiet	1	522	2
4	24	Male	Right	B	09/11/2016	11:08:47	19	TrialPrimaParte	alarming	alarm	1	495	2
4	24	Male	Right	B	09/11/2016	11:08:47	20	TrialPrimaParte	crush	bemp	2	641	1
4	24	Male	Right	B	09/11/2016	11:08:47	21	TrialPrimaParte	firmly	heave	0	1034	2
4	24	Male	Right	B	09/11/2016	11:08:47	22	TrialPrimaParte	scalding	scald	1	606	2
4	24	Male	Right	B	09/11/2016	11:08:47	23	TrialPrimaParte	bubble	glef	2	636	1
4	24	Male	Right	B	09/11/2016	11:08:47	24	TrialPrimaParte	swivel	quat	2	739	1
4	24	Male	Right	B	09/11/2016	11:08:47	25	TrialPrimaParte	child	sild	2	1018	1
4	24	Male	Right	B	09/11/2016	11:08:47	26	TrialPrimaParte	textile	text	1	506	2
4	24	Male	Right	B	09/11/2016	11:08:47	27	TrialPrimaParte	vivacious	vicis	2	656	1
4	24	Male	Right	B	09/11/2016	11:08:47	28	TrialPrimaParte	grouse	gruf	2	693	1
4	24	Male	Right	B	09/11/2016	11:08:47	29	TrialPrimaParte	miller	gloom	0	622	2
4	24	Male	Right	B	09/11/2016	11:08:47	30	TrialPrimaParte	centimetres	censar	2	764	1
4	24	Male	Right	B	09/11/2016	11:08:47	31	TrialPrimaParte	happy	sigh	0	525	2
4	24	Male	Right	B	09/11/2016	11:08:47	32	TrialPrimaParte	gifted	pulp	0	644	2
4	24	Male	Right	B	09/11/2016	11:08:47	33	TrialPrimaParte	legacy	lecy	2	738	1
4	24	Male	Right	B	09/11/2016	11:08:47	34	TrialPrimaParte	lately	dial	0	895	2
4	24	Male	Right	B	09/11/2016	11:08:47	35	TrialPrimaParte	oddity	squaw	0	874	1
4	24	Male	Right	B	09/11/2016	11:08:47	36	TrialPrimaParte	plastic	spaxe	2	701	1
4	24	Male	Right	B	09/11/2016	11:08:47	37	TrialPrimaParte	angelic	angel	1	506	2
4	24	Male	Right	B	09/11/2016	11:08:47	38	TrialPrimaParte	coyness	whisk	0	1109	1
4	24	Male	Right	B	09/11/2016	11:08:47	39	TrialPrimaParte	answer	anwe	2	637	1
4	24	Male	Right	B	09/11/2016	11:08:47	40	TrialPrimaParte	haulier	halfe	2	1678	1
4	24	Male	Right	B	09/11/2016	11:08:47	41	TrialPrimaParte	fanatic	fanty	2	831	1
4	24	Male	Right	B	09/11/2016	11:08:47	42	TrialPrimaParte	sensuous	secly	2	672	1
4	24	Male	Right	B	09/11/2016	11:08:47	43	TrialPrimaParte	cheaply	twin	0	514	2
4	24	Male	Right	B	09/11/2016	11:08:47	44	TrialPrimaParte	greenery	green	1	506	2
4	24	Male	Right	B	09/11/2016	11:08:47	45	TrialPrimaParte	raffle	rafel	2	537	1
4	24	Male	Right	B	09/11/2016	11:08:47	46	TrialPrimaParte	moulder	moure	2	698	1
4	24	Male	Right	B	09/11/2016	11:08:47	47	TrialPrimaParte	stressful	abgaid	2	1302	1
4	24	Male	Right	B	09/11/2016	11:08:47	48	TrialPrimaParte	prudish	force	0	685	2
4	24	Male	Right	B	09/11/2016	11:08:47	49	TrialPrimaParte	eruption	erupt	1	583	2
4	24	Male	Right	B	09/11/2016	11:08:47	50	TrialPrimaParte	employer	employ	1	481	2
4	24	Male	Right	B	09/11/2016	11:08:47	51	TrialPrimaParte	opposition	nunfy	2	637	1
4	24	Male	Right	B	09/11/2016	11:08:47	52	TrialPrimaParte	discern	disc	1	637	1
4	24	Male	Right	B	09/11/2016	11:08:47	53	TrialPrimaParte	culprit	cuti	2	613	1
4	24	Male	Right	B	09/11/2016	11:08:47	54	TrialPrimaParte	neutron	whese	2	761	1
4	24	Male	Right	B	09/11/2016	11:08:47	55	TrialPrimaParte	drunkard	drunk	1	449	2
4	24	Male	Right	B	09/11/2016	11:08:47	56	TrialPrimaParte	analogy	anopy	2	951	2
4	24	Male	Right	B	09/11/2016	11:08:47	57	TrialPrimaParte	leftist	bulb	0	587	2
4	24	Male	Right	B	09/11/2016	11:08:47	58	TrialPrimaParte	daring	dalig	2	619	1
4	24	Male	Right	B	09/11/2016	11:08:47	59	TrialPrimaParte	gastric	waser	2	1043	1
4	24	Male	Right	B	09/11/2016	11:08:47	60	TrialPrimaParte	crummy	meye	2	690	1
4	24	Male	Right	B	09/11/2016	11:08:47	61	TrialPrimaParte	lessen	bomb	0	506	2
4	24	Male	Right	B	09/11/2016	11:08:47	62	TrialPrimaParte	others	unit	0	501	2
4	24	Male	Right	B	09/11/2016	11:08:47	63	TrialPrimaParte	utter	uls	2	616	1
4	24	Male	Right	B	09/11/2016	11:08:47	64	TrialPrimaParte	tract	trep	2	639	1
4	24	Male	Right	B	09/11/2016	11:08:47	65	TrialPrimaParte	investigate	invest	1	512	2
4	24	Male	Right	B	09/11/2016	11:08:47	66	TrialPrimaParte	oxygenate	oxygen	1	542	2
4	24	Male	Right	B	09/11/2016	11:08:47	67	TrialPrimaParte	pummel	syly	2	528	1
4	24	Male	Right	B	09/11/2016	11:08:47	68	TrialPrimaParte	tamponade	ruffy	2	669	2
4	24	Male	Right	B	09/11/2016	11:08:47	69	TrialPrimaParte	piratical	pirent	2	684	1
4	24	Male	Right	B	09/11/2016	11:08:47	70	TrialPrimaParte	kingdom	adopt	0	564	2
4	24	Male	Right	B	09/11/2016	11:08:47	71	TrialPrimaParte	power	mord	2	636	2
4	24	Male	Right	B	09/11/2016	11:08:47	72	TrialPrimaParte	critical	critic	1	494	2
4	24	Male	Right	B	09/11/2016	11:08:47	73	TrialPrimaParte	fisher	fims	2	1150	1
4	24	Male	Right	B	09/11/2016	11:08:47	74	TrialPrimaParte	abstract	fewtu	2	628	1
4	24	Male	Right	B	09/11/2016	11:08:47	75	TrialPrimaParte	really	numb	0	475	2
4	24	Male	Right	B	09/11/2016	11:08:47	76	TrialSecondaParte	fibrosis	shuar	2	574	1
4	24	Male	Right	B	09/11/2016	11:08:47	77	TrialSecondaParte	criminal	huare	2	547	1
4	24	Male	Right	B	09/11/2016	11:08:47	78	TrialSecondaParte	skylight	skigh	2	556	1
4	24	Male	Right	B	09/11/2016	11:08:47	79	TrialSecondaParte	airtight	aith	2	481	1
4	24	Male	Right	B	09/11/2016	11:08:47	80	TrialSecondaParte	unique	unzed	2	610	1
4	24	Male	Right	B	09/11/2016	11:08:47	81	TrialSecondaParte	geisha	crove	2	977	2
4	24	Male	Right	B	09/11/2016	11:08:47	82	TrialSecondaParte	stroke	cligh	2	1321	1
4	24	Male	Right	B	09/11/2016	11:08:47	83	TrialSecondaParte	buoyant	stir	0	731	2
4	24	Male	Right	B	09/11/2016	11:08:47	84	TrialSecondaParte	vigilant	vigan	2	704	1
4	24	Male	Right	B	09/11/2016	11:08:47	85	TrialSecondaParte	kinetic	kinse	2	697	1
4	24	Male	Right	B	09/11/2016	11:08:47	86	TrialSecondaParte	bridal	glut	0	664	2
4	24	Male	Right	B	09/11/2016	11:08:47	87	TrialSecondaParte	facetious	facet	1	813	2
4	24	Male	Right	B	09/11/2016	11:08:47	88	TrialSecondaParte	courteous	court	1	531	2
4	24	Male	Right	B	09/11/2016	11:08:47	89	TrialSecondaParte	ambush	amshy	2	701	1
4	24	Male	Right	B	09/11/2016	11:08:47	90	TrialSecondaParte	pottage	posch	2	1108	1
4	24	Male	Right	B	09/11/2016	11:08:47	91	TrialSecondaParte	illicit	ilkis	2	610	1
4	24	Male	Right	B	09/11/2016	11:08:47	92	TrialSecondaParte	biscuit	bist	2	691	1
4	24	Male	Right	B	09/11/2016	11:08:47	93	TrialSecondaParte	maternal	malern	2	688	1
4	24	Male	Right	B	09/11/2016	11:08:47	94	TrialSecondaParte	winger	pluck	0	633	2
4	24	Male	Right	B	09/11/2016	11:08:47	95	TrialSecondaParte	watery	cream	0	590	2
4	24	Male	Right	B	09/11/2016	11:08:47	96	TrialSecondaParte	neighbour	neigh	1	1061	2
4	24	Male	Right	B	09/11/2016	11:08:47	97	TrialSecondaParte	legendary	legend	1	508	2
4	24	Male	Right	B	09/11/2016	11:08:47	98	TrialSecondaParte	fuselage	fuse	1	659	2
4	24	Male	Right	B	09/11/2016	11:08:47	99	TrialSecondaParte	candidacy	candid	1	721	2
4	24	Male	Right	B	09/11/2016	11:08:47	100	TrialSecondaParte	vertical	verks	2	599	1
4	24	Male	Right	B	09/11/2016	11:08:47	101	TrialSecondaParte	mosaic	mip	2	537	1
4	24	Male	Right	B	09/11/2016	11:08:47	102	TrialSecondaParte	glossary	gloss	1	661	2
4	24	Male	Right	B	09/11/2016	11:08:47	103	TrialSecondaParte	armoury	arwor	2	534	1
4	24	Male	Right	B	09/11/2016	11:08:47	104	TrialSecondaParte	hourly	snip	0	696	2
4	24	Male	Right	B	09/11/2016	11:08:47	105	TrialSecondaParte	thicket	thick	1	813	2
4	24	Male	Right	B	09/11/2016	11:08:47	106	TrialSecondaParte	inventory	invent	1	532	2
4	24	Male	Right	B	09/11/2016	11:08:47	107	TrialSecondaParte	fishy	putt	0	853	1
4	24	Male	Right	B	09/11/2016	11:08:47	108	TrialSecondaParte	fruitless	fruit	1	542	2
4	24	Male	Right	B	09/11/2016	11:08:47	109	TrialSecondaParte	genetic	genth	2	676	1
4	24	Male	Right	B	09/11/2016	11:08:47	110	TrialSecondaParte	formal	guilt	0	610	2
4	24	Male	Right	B	09/11/2016	11:08:47	111	TrialSecondaParte	farcical	farxy	2	540	1
4	24	Male	Right	B	09/11/2016	11:08:47	112	TrialSecondaParte	religious	sisby	2	634	1
4	24	Male	Right	B	09/11/2016	11:08:47	113	TrialSecondaParte	graphic	blamp	2	779	1
4	24	Male	Right	B	09/11/2016	11:08:47	114	TrialSecondaParte	safely	brand	0	760	2
4	24	Male	Right	B	09/11/2016	11:08:47	115	TrialSecondaParte	vengeful	cherb	2	563	1
4	24	Male	Right	B	09/11/2016	11:08:47	116	TrialSecondaParte	foetal	fongs	2	504	1
4	24	Male	Right	B	09/11/2016	11:08:47	117	TrialSecondaParte	syphilis	ruar	2	638	1
4	24	Male	Right	B	09/11/2016	11:08:47	118	TrialSecondaParte	manual	mals	2	595	1
4	24	Male	Right	B	09/11/2016	11:08:47	119	TrialSecondaParte	rational	ration	1	505	2
4	24	Male	Right	B	09/11/2016	11:08:47	120	TrialSecondaParte	swotting	chuly	2	637	1
4	24	Male	Right	B	09/11/2016	11:08:47	121	TrialSecondaParte	blush	blif	2	672	1
4	24	Male	Right	B	09/11/2016	11:08:47	122	TrialSecondaParte	feudal	arch	0	657	2
4	24	Male	Right	B	09/11/2016	11:08:47	123	TrialSecondaParte	crikey	brize	2	831	1
4	24	Male	Right	B	09/11/2016	11:08:47	124	TrialSecondaParte	monastery	fagor	2	701	1
4	24	Male	Right	B	09/11/2016	11:08:47	125	TrialSecondaParte	traffic	trepy	2	700	1
4	24	Male	Right	B	09/11/2016	11:08:47	126	TrialSecondaParte	stilted	stilt	1	843	1
4	24	Male	Right	B	09/11/2016	11:08:47	127	TrialSecondaParte	passel	turp	2	732	1
4	24	Male	Right	B	09/11/2016	11:08:47	128	TrialSecondaParte	widen	amp	0	938	1
4	24	Male	Right	B	09/11/2016	11:08:47	129	TrialSecondaParte	dietary	diet	1	522	2
4	24	Male	Right	B	09/11/2016	11:08:47	130	TrialSecondaParte	arsenal	arse	1	557	2
4	24	Male	Right	B	09/11/2016	11:08:47	131	TrialSecondaParte	wishful	toast	0	534	2
4	24	Male	Right	B	09/11/2016	11:08:47	132	TrialSecondaParte	bourbon	boun	2	918	1
4	24	Male	Right	B	09/11/2016	11:08:47	133	TrialSecondaParte	cranky	crony	2	1058	1
4	24	Male	Right	B	09/11/2016	11:08:47	134	TrialSecondaParte	fabulous	smaply	2	754	1
4	24	Male	Right	B	09/11/2016	11:08:47	135	TrialSecondaParte	sandy	iron	0	467	2
4	24	Male	Right	B	09/11/2016	11:08:47	136	TrialSecondaParte	supplant	plosy	2	500	1
4	24	Male	Right	B	09/11/2016	11:08:47	137	TrialSecondaParte	stubborn	stub	1	1150	2
4	24	Male	Right	B	09/11/2016	11:08:47	138	TrialSecondaParte	weekly	rabbi	0	523	1
4	24	Male	Right	B	09/11/2016	11:08:47	139	TrialSecondaParte	plaintiff	plain	1	514	2
4	24	Male	Right	B	09/11/2016	11:08:47	140	TrialSecondaParte	desert	dert	2	618	1
4	24	Male	Right	B	09/11/2016	11:08:47	141	TrialSecondaParte	friar	blyr	2	534	1
4	24	Male	Right	B	09/11/2016	11:08:47	142	TrialSecondaParte	fleeting	fleet	1	688	2
4	24	Male	Right	B	09/11/2016	11:08:47	143	TrialSecondaParte	awaken	tood	2	949	1
4	24	Male	Right	B	09/11/2016	11:08:47	144	TrialSecondaParte	message	rosty	2	905	2
4	24	Male	Right	B	09/11/2016	11:08:47	145	TrialSecondaParte	itchy	shun	0	1181	2
4	24	Male	Right	B	09/11/2016	11:08:47	146	TrialSecondaParte	gravel	flixy	2	854	1
4	24	Male	Right	B	09/11/2016	11:08:47	147	TrialSecondaParte	angler	treat	0	554	2
4	24	Male	Right	B	09/11/2016	11:08:47	148	TrialSecondaParte	baronet	baron	1	510	2
4	24	Male	Right	B	09/11/2016	11:08:47	149	TrialSecondaParte	inherent	inpock	2	692	1
4	24	Male	Right	B	09/11/2016	11:08:47	150	TrialSecondaParte	cloudless	cloud	1	545	2
4	24	Male	Right	B	09/11/2016	11:08:47	151	TrialTerzaParte	extract	extra	1	569	2
4	24	Male	Right	B	09/11/2016	11:08:47	152	TrialTerzaParte	thorny	marsh	0	921	2
4	24	Male	Right	B	09/11/2016	11:08:47	153	TrialTerzaParte	twisty	jerk	0	574	2
4	24	Male	Right	B	09/11/2016	11:08:47	154	TrialTerzaParte	unspoilt	nalky	2	772	1
4	24	Male	Right	B	09/11/2016	11:08:47	155	TrialTerzaParte	turmoil	furm	2	825	1
4	24	Male	Right	B	09/11/2016	11:08:47	156	TrialTerzaParte	thinly	golf	0	487	2
4	24	Male	Right	B	09/11/2016	11:08:47	157	TrialTerzaParte	ninety	scrap	0	468	2
4	24	Male	Right	B	09/11/2016	11:08:47	158	TrialTerzaParte	muffler	coast	0	454	2
4	24	Male	Right	B	09/11/2016	11:08:47	159	TrialTerzaParte	plonking	pluny	2	600	1
4	24	Male	Right	B	09/11/2016	11:08:47	160	TrialTerzaParte	brisket	brisk	1	658	2
4	24	Male	Right	B	09/11/2016	11:08:47	161	TrialTerzaParte	decision	posig	2	515	1
4	24	Male	Right	B	09/11/2016	11:08:47	162	TrialTerzaParte	cookery	train	0	465	2
4	24	Male	Right	B	09/11/2016	11:08:47	163	TrialTerzaParte	snobbery	snotty	2	561	1
4	24	Male	Right	B	09/11/2016	11:08:47	164	TrialTerzaParte	original	orive	2	706	1
4	24	Male	Right	B	09/11/2016	11:08:47	165	TrialTerzaParte	veteran	venic	2	713	1
4	24	Male	Right	B	09/11/2016	11:08:47	166	TrialTerzaParte	misty	stun	0	613	2
4	24	Male	Right	B	09/11/2016	11:08:47	167	TrialTerzaParte	scanner	rast	2	919	2
4	24	Male	Right	B	09/11/2016	11:08:47	168	TrialTerzaParte	scrooge	plich	2	743	1
4	24	Male	Right	B	09/11/2016	11:08:47	169	TrialTerzaParte	government	govern	1	531	2
4	24	Male	Right	B	09/11/2016	11:08:47	170	TrialTerzaParte	prosecution	leler	2	698	1
4	24	Male	Right	B	09/11/2016	11:08:47	171	TrialTerzaParte	basilisk	basil	1	1246	2
4	24	Male	Right	B	09/11/2016	11:08:47	172	TrialTerzaParte	liquidate	liquid	1	515	2
4	24	Male	Right	B	09/11/2016	11:08:47	173	TrialTerzaParte	naughty	troll	0	676	2
4	24	Male	Right	B	09/11/2016	11:08:47	174	TrialTerzaParte	jetty	kuty	2	544	1
4	24	Male	Right	B	09/11/2016	11:08:47	175	TrialTerzaParte	manly	weir	0	627	1
4	24	Male	Right	B	09/11/2016	11:08:47	176	TrialTerzaParte	hatchery	fighy	2	712	1
4	24	Male	Right	B	09/11/2016	11:08:47	177	TrialTerzaParte	frosty	sign	0	527	2
4	24	Male	Right	B	09/11/2016	11:08:47	178	TrialTerzaParte	factual	board	0	566	2
4	24	Male	Right	B	09/11/2016	11:08:47	179	TrialTerzaParte	smelly	thuly	2	508	1
4	24	Male	Right	B	09/11/2016	11:08:47	180	TrialTerzaParte	brutal	helm	0	649	2
4	24	Male	Right	B	09/11/2016	11:08:47	181	TrialTerzaParte	absence	agsel	2	582	1
4	24	Male	Right	B	09/11/2016	11:08:47	182	TrialTerzaParte	signal	quir	2	864	1
4	24	Male	Right	B	09/11/2016	11:08:47	183	TrialTerzaParte	editor	plan	0	490	2
4	24	Male	Right	B	09/11/2016	11:08:47	184	TrialTerzaParte	demonstrate	demon	1	549	2
4	24	Male	Right	B	09/11/2016	11:08:47	185	TrialTerzaParte	sovereign	sovign	2	637	1
4	24	Male	Right	B	09/11/2016	11:08:47	186	TrialTerzaParte	teacher	teach	1	569	2
4	24	Male	Right	B	09/11/2016	11:08:47	187	TrialTerzaParte	tricky	shove	0	733	2
4	24	Male	Right	B	09/11/2016	11:08:47	188	TrialTerzaParte	polite	tind	2	895	1
4	24	Male	Right	B	09/11/2016	11:08:47	189	TrialTerzaParte	plumage	plum	1	910	2
4	24	Male	Right	B	09/11/2016	11:08:47	190	TrialTerzaParte	spindly	tact	0	634	2
4	24	Male	Right	B	09/11/2016	11:08:47	191	TrialTerzaParte	harden	filth	0	670	2
4	24	Male	Right	B	09/11/2016	11:08:47	192	TrialTerzaParte	maximum	suyte	2	545	1
4	24	Male	Right	B	09/11/2016	11:08:47	193	TrialTerzaParte	passant	pasks	2	786	1
4	24	Male	Right	B	09/11/2016	11:08:47	194	TrialTerzaParte	damsel	dalp	2	573	1
4	24	Male	Right	B	09/11/2016	11:08:47	195	TrialTerzaParte	faceless	facmod	2	613	1
4	24	Male	Right	B	09/11/2016	11:08:47	196	TrialTerzaParte	fixture	strul	2	701	1
4	24	Male	Right	B	09/11/2016	11:08:47	197	TrialTerzaParte	gluteal	abtle	2	585	1
4	24	Male	Right	B	09/11/2016	11:08:47	198	TrialTerzaParte	buzzard	buzz	1	534	2
4	24	Male	Right	B	09/11/2016	11:08:47	199	TrialTerzaParte	surface	surf	1	521	2
4	24	Male	Right	B	09/11/2016	11:08:47	200	TrialTerzaParte	tackler	lerf	2	727	1
4	24	Male	Right	B	09/11/2016	11:08:47	201	TrialTerzaParte	paternal	siter	2	650	1
4	24	Male	Right	B	09/11/2016	11:08:47	202	TrialTerzaParte	itinerary	itiner	2	1034	1
4	24	Male	Right	B	09/11/2016	11:08:47	203	TrialTerzaParte	advisory	advock	2	829	1
4	24	Male	Right	B	09/11/2016	11:08:47	204	TrialTerzaParte	asterix	cret	2	716	1
4	24	Male	Right	B	09/11/2016	11:08:47	205	TrialTerzaParte	parenthesis	parent	1	561	2
4	24	Male	Right	B	09/11/2016	11:08:47	206	TrialTerzaParte	revolutionise	sivert	2	651	1
4	24	Male	Right	B	09/11/2016	11:08:47	207	TrialTerzaParte	adviser	flick	0	709	2
4	24	Male	Right	B	09/11/2016	11:08:47	208	TrialTerzaParte	griffin	spoff	2	616	1
4	24	Male	Right	B	09/11/2016	11:08:47	209	TrialTerzaParte	olympic	olick	2	548	1
4	24	Male	Right	B	09/11/2016	11:08:47	210	TrialTerzaParte	question	quest	1	742	2
4	24	Male	Right	B	09/11/2016	11:08:47	211	TrialTerzaParte	international	intern	1	655	2
4	24	Male	Right	B	09/11/2016	11:08:47	212	TrialTerzaParte	yearly	acid	0	539	1
4	24	Male	Right	B	09/11/2016	11:08:47	213	TrialTerzaParte	colonel	colon	1	714	2
4	24	Male	Right	B	09/11/2016	11:08:47	214	TrialTerzaParte	artistry	artist	1	672	2
4	24	Male	Right	B	09/11/2016	11:08:47	215	TrialTerzaParte	sudden	verty	2	650	1
4	24	Male	Right	B	09/11/2016	11:08:47	216	TrialTerzaParte	lethal	lerd	2	819	1
4	24	Male	Right	B	09/11/2016	11:08:47	217	TrialTerzaParte	agreement	agree	1	512	2
4	24	Male	Right	B	09/11/2016	11:08:47	218	TrialTerzaParte	dusty	dusy	2	773	1
4	24	Male	Right	B	09/11/2016	11:08:47	219	TrialTerzaParte	classic	clals	2	684	1
4	24	Male	Right	B	09/11/2016	11:08:47	220	TrialTerzaParte	penguin	phorb	2	663	1
4	24	Male	Right	B	09/11/2016	11:08:47	221	TrialTerzaParte	appendix	append	1	1000	2
4	24	Male	Right	B	09/11/2016	11:08:47	222	TrialTerzaParte	nincompoops	ninpoo	2	580	1
4	24	Male	Right	B	09/11/2016	11:08:47	223	TrialTerzaParte	dreamer	dream	1	506	2
4	24	Male	Right	B	09/11/2016	11:08:47	224	TrialTerzaParte	grueling	gruel	1	648	2
4	24	Male	Right	B	09/11/2016	11:08:47	225	TrialTerzaParte	killer	lalf	2	730	1
4	24	Male	Right	B	09/11/2016	11:08:47	226	TrialQuartaParte	renewable	renew	1	613	2
4	24	Male	Right	B	09/11/2016	11:08:47	227	TrialQuartaParte	ceramic	cerbs	2	487	1
4	24	Male	Right	B	09/11/2016	11:08:47	228	TrialQuartaParte	postage	poth	2	569	1
4	24	Male	Right	B	09/11/2016	11:08:47	229	TrialQuartaParte	difference	difrol	2	643	1
4	24	Male	Right	B	09/11/2016	11:08:47	230	TrialQuartaParte	dealer	poet	0	599	2
4	24	Male	Right	B	09/11/2016	11:08:47	231	TrialQuartaParte	phoenix	blont	2	667	1
4	24	Male	Right	B	09/11/2016	11:08:47	232	TrialQuartaParte	pottery	crook	0	584	2
4	24	Male	Right	B	09/11/2016	11:08:47	233	TrialQuartaParte	acreage	acre	1	731	2
4	24	Male	Right	B	09/11/2016	11:08:47	234	TrialQuartaParte	linkage	flion	2	682	1
4	24	Male	Right	B	09/11/2016	11:08:47	235	TrialQuartaParte	reaction	react	1	556	2
4	24	Male	Right	B	09/11/2016	11:08:47	236	TrialQuartaParte	country	count	1	579	2
4	24	Male	Right	B	09/11/2016	11:08:47	237	TrialQuartaParte	rancour	brits	2	794	2
4	24	Male	Right	B	09/11/2016	11:08:47	238	TrialQuartaParte	downs	risk	0	524	2
4	24	Male	Right	B	09/11/2016	11:08:47	239	TrialQuartaParte	rebound	cous	2	656	1
4	24	Male	Right	B	09/11/2016	11:08:47	240	TrialQuartaParte	summit	sutty	2	986	1
4	24	Male	Right	B	09/11/2016	11:08:47	241	TrialQuartaParte	stampede	stamp	1	556	2
4	24	Male	Right	B	09/11/2016	11:08:47	242	TrialQuartaParte	touchy	fizz	0	776	2
4	24	Male	Right	B	09/11/2016	11:08:47	243	TrialQuartaParte	cuffs	glad	0	589	2
4	24	Male	Right	B	09/11/2016	11:08:47	244	TrialQuartaParte	floater	float	1	482	2
4	24	Male	Right	B	09/11/2016	11:08:47	245	TrialQuartaParte	prayer	butt	0	517	2
4	24	Male	Right	B	09/11/2016	11:08:47	246	TrialQuartaParte	dysentery	ranin	2	807	1
4	24	Male	Right	B	09/11/2016	11:08:47	247	TrialQuartaParte	against	again	1	503	2
4	24	Male	Right	B	09/11/2016	11:08:47	248	TrialQuartaParte	finely	chill	0	613	2
4	24	Male	Right	B	09/11/2016	11:08:47	249	TrialQuartaParte	abstain	abter	2	713	1
4	24	Male	Right	B	09/11/2016	11:08:47	250	TrialQuartaParte	surgeon	surge	1	537	2
4	24	Male	Right	B	09/11/2016	11:08:47	251	TrialQuartaParte	fatal	fids	2	663	1
4	24	Male	Right	B	09/11/2016	11:08:47	252	TrialQuartaParte	ethereal	ether	1	578	2
4	24	Male	Right	B	09/11/2016	11:08:47	253	TrialQuartaParte	cryptic	crypt	1	607	2
4	24	Male	Right	B	09/11/2016	11:08:47	254	TrialQuartaParte	hydration	povic	2	575	1
4	24	Male	Right	B	09/11/2016	11:08:47	255	TrialQuartaParte	acutely	nymph	0	770	2
4	24	Male	Right	B	09/11/2016	11:08:47	256	TrialQuartaParte	reliable	blidar	2	708	1
4	24	Male	Right	B	09/11/2016	11:08:47	257	TrialQuartaParte	twelfth	smug	0	573	2
4	24	Male	Right	B	09/11/2016	11:08:47	258	TrialQuartaParte	socialiser	flepity	2	596	1
4	24	Male	Right	B	09/11/2016	11:08:47	259	TrialQuartaParte	halogen	haly	2	715	1
4	24	Male	Right	B	09/11/2016	11:08:47	260	TrialQuartaParte	repertory	repty	2	657	1
4	24	Male	Right	B	09/11/2016	11:08:47	261	TrialQuartaParte	electron	elect	1	615	2
4	24	Male	Right	B	09/11/2016	11:08:47	262	TrialQuartaParte	lesser	twit	0	807	2
4	24	Male	Right	B	09/11/2016	11:08:47	263	TrialQuartaParte	golden	free	0	494	2
4	24	Male	Right	B	09/11/2016	11:08:47	264	TrialQuartaParte	department	depart	1	766	2
4	24	Male	Right	B	09/11/2016	11:08:47	265	TrialQuartaParte	ribbon	ribed	2	715	1
4	24	Male	Right	B	09/11/2016	11:08:47	266	TrialQuartaParte	lovers	flesh	0	562	2
4	24	Male	Right	B	09/11/2016	11:08:47	267	TrialQuartaParte	portal	balp	2	541	1
4	24	Male	Right	B	09/11/2016	11:08:47	268	TrialQuartaParte	villain	villa	1	661	2
4	24	Male	Right	B	09/11/2016	11:08:47	269	TrialQuartaParte	vainly	craft	0	566	2
4	24	Male	Right	B	09/11/2016	11:08:47	270	TrialQuartaParte	filmy	plus	0	1364	2
4	24	Male	Right	B	09/11/2016	11:08:47	271	TrialQuartaParte	amenable	amen	1	645	2
4	24	Male	Right	B	09/11/2016	11:08:47	272	TrialQuartaParte	gently	pub	0	609	2
4	24	Male	Right	B	09/11/2016	11:08:47	273	TrialQuartaParte	category	cagre	2	688	1
4	24	Male	Right	B	09/11/2016	11:08:47	274	TrialQuartaParte	cousin	coul	2	966	1
4	24	Male	Right	B	09/11/2016	11:08:47	275	TrialQuartaParte	ranger	view	0	550	2
4	24	Male	Right	B	09/11/2016	11:08:47	276	TrialQuartaParte	within	earl	0	528	2
4	24	Male	Right	B	09/11/2016	11:08:47	277	TrialQuartaParte	keeper	gala	0	668	2
4	24	Male	Right	B	09/11/2016	11:08:47	278	TrialQuartaParte	tripper	mourn	0	639	2
4	24	Male	Right	B	09/11/2016	11:08:47	279	TrialQuartaParte	folder	heart	0	520	2
4	24	Male	Right	B	09/11/2016	11:08:47	280	TrialQuartaParte	merrier	merks	2	1223	2
4	24	Male	Right	B	09/11/2016	11:08:47	281	TrialQuartaParte	secretary	secret	1	528	2
4	24	Male	Right	B	09/11/2016	11:08:47	282	TrialQuartaParte	clanger	spant	2	798	1
4	24	Male	Right	B	09/11/2016	11:08:47	283	TrialQuartaParte	tributary	calin	2	629	1
4	24	Male	Right	B	09/11/2016	11:08:47	284	TrialQuartaParte	dragon	dron	2	863	1
4	24	Male	Right	B	09/11/2016	11:08:47	285	TrialQuartaParte	active	blood	0	525	2
4	24	Male	Right	B	09/11/2016	11:08:47	286	TrialQuartaParte	northern	north	1	692	2
4	24	Male	Right	B	09/11/2016	11:08:47	287	TrialQuartaParte	deficit	dety	2	580	1
4	24	Male	Right	B	09/11/2016	11:08:47	288	TrialQuartaParte	splinter	splint	1	1093	2
4	24	Male	Right	B	09/11/2016	11:08:47	289	TrialQuartaParte	routeing	tomed	2	704	1
4	24	Male	Right	B	09/11/2016	11:08:47	290	TrialQuartaParte	scullery	scull	1	971	1
4	24	Male	Right	B	09/11/2016	11:08:47	291	TrialQuartaParte	engage	yurd	2	683	1
4	24	Male	Right	B	09/11/2016	11:08:47	292	TrialQuartaParte	leaflet	organ	0	536	2
4	24	Male	Right	B	09/11/2016	11:08:47	293	TrialQuartaParte	talker	claf	2	650	1
4	24	Male	Right	B	09/11/2016	11:08:47	294	TrialQuartaParte	infantry	infant	1	673	2
4	24	Male	Right	B	09/11/2016	11:08:47	295	TrialQuartaParte	content	conly	2	608	1
4	24	Male	Right	B	09/11/2016	11:08:47	296	TrialQuartaParte	sleet	slit	2	873	1
4	24	Male	Right	B	09/11/2016	11:08:47	297	TrialQuartaParte	education	educon	2	732	1
4	24	Male	Right	B	09/11/2016	11:08:47	298	TrialQuartaParte	silken	tuft	0	674	1
4	24	Male	Right	B	09/11/2016	11:08:47	299	TrialQuartaParte	thinker	beard	0	574	2
4	24	Male	Right	B	09/11/2016	11:08:47	300	TrialQuartaParte	heroic	soft	0	564	2
