Subject	Age	Gender	Handedness	Rotation	Data	OraStart	TrialCount	TrialType	Prime	Target	Relatedness	rt	Resp
31	22	Female	Right	A	29/11/2016	14:14:14	1	Prova	wellness	well	4	1071	2
31	22	Female	Right	A	29/11/2016	14:14:14	2	Prova	homeless	home	4	650	2
31	22	Female	Right	A	29/11/2016	14:14:14	3	Prova	tricky	tricker	4	952	2
31	22	Female	Right	A	29/11/2016	14:14:14	4	Prova	character	char	4	918	2
31	22	Female	Right	A	29/11/2016	14:14:14	5	Prova	translater	pulter	4	973	1
31	22	Female	Right	A	29/11/2016	14:14:14	6	Prova2	escape	exat	4	1347	1
31	22	Female	Right	A	29/11/2016	14:14:14	7	Prova2	investigator	invest	4	701	2
31	22	Female	Right	A	29/11/2016	14:14:14	8	Prova2	examiner	exam	4	655	2
31	22	Female	Right	A	29/11/2016	14:14:14	9	Prova2	topic	top	4	562	2
31	22	Female	Right	A	29/11/2016	14:14:14	1	Warmup	unpack	pack	5	763	2
31	22	Female	Right	A	29/11/2016	14:14:14	2	Warmup	tartare	tariff	5	829	2
31	22	Female	Right	A	29/11/2016	14:14:14	3	Warmup	cowrie	sturms	5	1236	2
31	22	Female	Right	A	29/11/2016	14:14:14	4	Warmup	cortex	newbie	5	915	1
31	22	Female	Right	A	29/11/2016	14:14:14	5	Warmup	pullma	pulm	5	1150	1
31	22	Female	Right	A	29/11/2016	14:14:14	1	TrialPrimaParte	defector	stamp	0	726	2
31	22	Female	Right	A	29/11/2016	14:14:14	2	TrialPrimaParte	flicker	flick	1	777	2
31	22	Female	Right	A	29/11/2016	14:14:14	3	TrialPrimaParte	halogen	haly	2	1111	1
31	22	Female	Right	A	29/11/2016	14:14:14	4	TrialPrimaParte	equipment	agree	0	675	2
31	22	Female	Right	A	29/11/2016	14:14:14	5	TrialPrimaParte	fisher	fims	2	1120	2
31	22	Female	Right	A	29/11/2016	14:14:14	6	TrialPrimaParte	archer	arch	1	893	1
31	22	Female	Right	A	29/11/2016	14:14:14	7	TrialPrimaParte	utter	uls	2	823	1
31	22	Female	Right	A	29/11/2016	14:14:14	8	TrialPrimaParte	talker	claf	2	1047	2
31	22	Female	Right	A	29/11/2016	14:14:14	9	TrialPrimaParte	jauntily	scald	0	1396	1
31	22	Female	Right	A	29/11/2016	14:14:14	10	TrialPrimaParte	organic	organ	1	766	2
31	22	Female	Right	A	29/11/2016	14:14:14	11	TrialPrimaParte	gaiety	harse	2	1094	2
31	22	Female	Right	A	29/11/2016	14:14:14	12	TrialPrimaParte	legacy	lecy	2	935	1
31	22	Female	Right	A	29/11/2016	14:14:14	13	TrialPrimaParte	centimetres	censar	2	1091	1
31	22	Female	Right	A	29/11/2016	14:14:14	14	TrialPrimaParte	mourner	mourn	1	862	1
31	22	Female	Right	A	29/11/2016	14:14:14	15	TrialPrimaParte	extremism	liquid	0	710	2
31	22	Female	Right	A	29/11/2016	14:14:14	16	TrialPrimaParte	monastery	fagor	2	998	1
31	22	Female	Right	A	29/11/2016	14:14:14	17	TrialPrimaParte	socialiser	flepity	2	1104	2
31	22	Female	Right	A	29/11/2016	14:14:14	18	TrialPrimaParte	anxiously	legend	0	716	2
31	22	Female	Right	A	29/11/2016	14:14:14	19	TrialPrimaParte	watcher	angel	0	658	2
31	22	Female	Right	A	29/11/2016	14:14:14	20	TrialPrimaParte	widowed	widow	1	599	2
31	22	Female	Right	A	29/11/2016	14:14:14	21	TrialPrimaParte	gloomy	gloom	1	806	2
31	22	Female	Right	A	29/11/2016	14:14:14	22	TrialPrimaParte	masonry	dream	0	663	2
31	22	Female	Right	A	29/11/2016	14:14:14	23	TrialPrimaParte	answer	anwe	2	763	1
31	22	Female	Right	A	29/11/2016	14:14:14	24	TrialPrimaParte	bomber	bomb	1	750	2
31	22	Female	Right	A	29/11/2016	14:14:14	25	TrialPrimaParte	stressful	abgaid	2	933	2
31	22	Female	Right	A	29/11/2016	14:14:14	26	TrialPrimaParte	fibrosis	shuar	2	868	2
31	22	Female	Right	A	29/11/2016	14:14:14	27	TrialPrimaParte	dweller	crypt	0	731	2
31	22	Female	Right	A	29/11/2016	14:14:14	28	TrialPrimaParte	voucher	baron	0	922	2
31	22	Female	Right	A	29/11/2016	14:14:14	29	TrialPrimaParte	early	earl	1	661	2
31	22	Female	Right	A	29/11/2016	14:14:14	30	TrialPrimaParte	united	unit	1	615	2
31	22	Female	Right	A	29/11/2016	14:14:14	31	TrialPrimaParte	unique	unzed	2	955	1
31	22	Female	Right	A	29/11/2016	14:14:14	32	TrialPrimaParte	tributary	calin	2	624	2
31	22	Female	Right	A	29/11/2016	14:14:14	33	TrialPrimaParte	analogy	anopy	2	794	2
31	22	Female	Right	A	29/11/2016	14:14:14	34	TrialPrimaParte	enactment	cloud	0	979	2
31	22	Female	Right	A	29/11/2016	14:14:14	35	TrialPrimaParte	sovereign	sovign	2	851	1
31	22	Female	Right	A	29/11/2016	14:14:14	36	TrialPrimaParte	inherent	inpock	2	810	2
31	22	Female	Right	A	29/11/2016	14:14:14	37	TrialPrimaParte	pottage	posch	2	1151	1
31	22	Female	Right	A	29/11/2016	14:14:14	38	TrialPrimaParte	feathery	drunk	0	665	2
31	22	Female	Right	A	29/11/2016	14:14:14	39	TrialPrimaParte	fatal	fids	2	858	2
31	22	Female	Right	A	29/11/2016	14:14:14	40	TrialPrimaParte	stirrup	stir	1	806	1
31	22	Female	Right	A	29/11/2016	14:14:14	41	TrialPrimaParte	sleet	slit	2	824	2
31	22	Female	Right	A	29/11/2016	14:14:14	42	TrialPrimaParte	skylight	skigh	2	800	1
31	22	Female	Right	A	29/11/2016	14:14:14	43	TrialPrimaParte	scrape	scrap	1	899	1
31	22	Female	Right	A	29/11/2016	14:14:14	44	TrialPrimaParte	validity	infant	0	1334	2
31	22	Female	Right	A	29/11/2016	14:14:14	45	TrialPrimaParte	ceramic	cerbs	2	857	2
31	22	Female	Right	A	29/11/2016	14:14:14	46	TrialPrimaParte	equally	comma	0	648	2
31	22	Female	Right	A	29/11/2016	14:14:14	47	TrialPrimaParte	composer	alarm	0	1197	2
31	22	Female	Right	A	29/11/2016	14:14:14	48	TrialPrimaParte	novelty	surge	0	1032	2
31	22	Female	Right	A	29/11/2016	14:14:14	49	TrialPrimaParte	existent	gruel	0	1306	2
31	22	Female	Right	A	29/11/2016	14:14:14	50	TrialPrimaParte	actually	quest	0	813	2
31	22	Female	Right	A	29/11/2016	14:14:14	51	TrialPrimaParte	foetal	fongs	2	1007	1
31	22	Female	Right	A	29/11/2016	14:14:14	52	TrialPrimaParte	pulpit	pulp	1	1019	2
31	22	Female	Right	A	29/11/2016	14:14:14	53	TrialPrimaParte	engage	yurd	2	940	1
31	22	Female	Right	A	29/11/2016	14:14:14	54	TrialPrimaParte	snobbish	green	0	658	2
31	22	Female	Right	A	29/11/2016	14:14:14	55	TrialPrimaParte	crush	bemp	2	787	1
31	22	Female	Right	A	29/11/2016	14:14:14	56	TrialPrimaParte	fabulous	smaply	2	724	2
31	22	Female	Right	A	29/11/2016	14:14:14	57	TrialPrimaParte	difference	difrol	2	1059	2
31	22	Female	Right	A	29/11/2016	14:14:14	58	TrialPrimaParte	awaken	tood	2	685	2
31	22	Female	Right	A	29/11/2016	14:14:14	59	TrialPrimaParte	moulder	moure	2	1142	1
31	22	Female	Right	A	29/11/2016	14:14:14	60	TrialPrimaParte	smuggle	smug	1	794	2
31	22	Female	Right	A	29/11/2016	14:14:14	61	TrialPrimaParte	weird	weir	1	937	1
31	22	Female	Right	A	29/11/2016	14:14:14	62	TrialPrimaParte	maternal	malern	2	866	1
31	22	Female	Right	A	29/11/2016	14:14:14	63	TrialPrimaParte	sudden	verty	2	781	2
31	22	Female	Right	A	29/11/2016	14:14:14	64	TrialPrimaParte	physical	react	0	797	2
31	22	Female	Right	A	29/11/2016	14:14:14	65	TrialPrimaParte	exemption	renew	0	949	2
31	22	Female	Right	A	29/11/2016	14:14:14	66	TrialPrimaParte	absurdity	plain	0	664	2
31	22	Female	Right	A	29/11/2016	14:14:14	67	TrialPrimaParte	forceps	force	1	831	2
31	22	Female	Right	A	29/11/2016	14:14:14	68	TrialPrimaParte	education	educon	2	1062	1
31	22	Female	Right	A	29/11/2016	14:14:14	69	TrialPrimaParte	abstract	fewtu	2	1020	1
31	22	Female	Right	A	29/11/2016	14:14:14	70	TrialPrimaParte	hydration	povic	2	1155	1
31	22	Female	Right	A	29/11/2016	14:14:14	71	TrialPrimaParte	planet	plan	1	660	2
31	22	Female	Right	A	29/11/2016	14:14:14	72	TrialPrimaParte	penguin	phorb	2	972	1
31	22	Female	Right	A	29/11/2016	14:14:14	73	TrialPrimaParte	tamponade	ruffy	2	948	1
31	22	Female	Right	A	29/11/2016	14:14:14	74	TrialPrimaParte	dysentery	ranin	2	945	2
31	22	Female	Right	A	29/11/2016	14:14:14	75	TrialPrimaParte	crooked	crook	1	797	2
31	22	Female	Right	A	29/11/2016	14:14:14	76	TrialSecondaParte	linkage	flion	2	996	2
31	22	Female	Right	A	29/11/2016	14:14:14	77	TrialSecondaParte	syphilis	ruar	2	986	2
31	22	Female	Right	A	29/11/2016	14:14:14	78	TrialSecondaParte	obviously	secret	0	727	2
31	22	Female	Right	A	29/11/2016	14:14:14	79	TrialSecondaParte	hearty	heart	1	558	2
31	22	Female	Right	A	29/11/2016	14:14:14	80	TrialSecondaParte	idealism	splint	0	846	2
31	22	Female	Right	A	29/11/2016	14:14:14	81	TrialSecondaParte	crummy	meye	2	990	1
31	22	Female	Right	A	29/11/2016	14:14:14	82	TrialSecondaParte	routeing	tomed	2	931	1
31	22	Female	Right	A	29/11/2016	14:14:14	83	TrialSecondaParte	trainee	train	1	700	2
31	22	Female	Right	A	29/11/2016	14:14:14	84	TrialSecondaParte	bulbous	bulb	1	657	2
31	22	Female	Right	A	29/11/2016	14:14:14	85	TrialSecondaParte	creamy	cream	1	564	2
31	22	Female	Right	A	29/11/2016	14:14:14	86	TrialSecondaParte	gravel	flixy	2	910	2
31	22	Female	Right	A	29/11/2016	14:14:14	87	TrialSecondaParte	traffic	trepy	2	770	2
31	22	Female	Right	A	29/11/2016	14:14:14	88	TrialSecondaParte	sensuous	secly	2	887	1
31	22	Female	Right	A	29/11/2016	14:14:14	89	TrialSecondaParte	content	conly	2	848	2
31	22	Female	Right	A	29/11/2016	14:14:14	90	TrialSecondaParte	smelly	thuly	2	831	2
31	22	Female	Right	A	29/11/2016	14:14:14	91	TrialSecondaParte	jetty	kuty	2	927	2
31	22	Female	Right	A	29/11/2016	14:14:14	92	TrialSecondaParte	tendency	critic	0	1130	2
31	22	Female	Right	A	29/11/2016	14:14:14	93	TrialSecondaParte	itinerary	itiner	2	1152	2
31	22	Female	Right	A	29/11/2016	14:14:14	94	TrialSecondaParte	clanger	spant	2	798	2
31	22	Female	Right	A	29/11/2016	14:14:14	95	TrialSecondaParte	vivacious	vicis	2	851	2
31	22	Female	Right	A	29/11/2016	14:14:14	96	TrialSecondaParte	helmet	helm	1	886	2
31	22	Female	Right	A	29/11/2016	14:14:14	97	TrialSecondaParte	stunt	stun	1	800	1
31	22	Female	Right	A	29/11/2016	14:14:14	98	TrialSecondaParte	merrier	merks	2	1187	1
31	22	Female	Right	A	29/11/2016	14:14:14	99	TrialSecondaParte	phoenix	blont	2	1028	2
31	22	Female	Right	A	29/11/2016	14:14:14	100	TrialSecondaParte	plastic	spaxe	2	856	1
31	22	Female	Right	A	29/11/2016	14:14:14	101	TrialSecondaParte	bubble	glef	2	959	1
31	22	Female	Right	A	29/11/2016	14:14:14	102	TrialSecondaParte	rumbling	ether	0	714	2
31	22	Female	Right	A	29/11/2016	14:14:14	103	TrialSecondaParte	graphic	blamp	2	884	1
31	22	Female	Right	A	29/11/2016	14:14:14	104	TrialSecondaParte	dragon	dron	2	897	2
31	22	Female	Right	A	29/11/2016	14:14:14	105	TrialSecondaParte	damsel	dalp	2	1127	1
31	22	Female	Right	A	29/11/2016	14:14:14	106	TrialSecondaParte	treaty	treat	1	847	2
31	22	Female	Right	A	29/11/2016	14:14:14	107	TrialSecondaParte	ribbon	ribed	2	791	2
31	22	Female	Right	A	29/11/2016	14:14:14	108	TrialSecondaParte	muffin	mufir	2	1048	1
31	22	Female	Right	A	29/11/2016	14:14:14	109	TrialSecondaParte	passant	pasks	2	880	1
31	22	Female	Right	A	29/11/2016	14:14:14	110	TrialSecondaParte	developer	court	0	887	2
31	22	Female	Right	A	29/11/2016	14:14:14	111	TrialSecondaParte	soften	soft	1	632	2
31	22	Female	Right	A	29/11/2016	14:14:14	112	TrialSecondaParte	shunt	shun	1	1010	2
31	22	Female	Right	A	29/11/2016	14:14:14	113	TrialSecondaParte	bloody	blood	1	600	2
31	22	Female	Right	A	29/11/2016	14:14:14	114	TrialSecondaParte	medical	surf	0	945	2
31	22	Female	Right	A	29/11/2016	14:14:14	115	TrialSecondaParte	benignly	basil	0	678	2
31	22	Female	Right	A	29/11/2016	14:14:14	116	TrialSecondaParte	instruction	demon	0	728	2
31	22	Female	Right	A	29/11/2016	14:14:14	117	TrialSecondaParte	passel	turp	2	1019	1
31	22	Female	Right	A	29/11/2016	14:14:14	118	TrialSecondaParte	fleshy	flesh	1	636	2
31	22	Female	Right	A	29/11/2016	14:14:14	119	TrialSecondaParte	desert	dert	2	806	2
31	22	Female	Right	A	29/11/2016	14:14:14	120	TrialSecondaParte	nymphet	nymph	1	904	1
31	22	Female	Right	A	29/11/2016	14:14:14	121	TrialSecondaParte	rebound	cous	2	1080	1
31	22	Female	Right	A	29/11/2016	14:14:14	122	TrialSecondaParte	murderous	invent	0	864	2
31	22	Female	Right	A	29/11/2016	14:14:14	123	TrialSecondaParte	lectureship	parent	0	887	2
31	22	Female	Right	A	29/11/2016	14:14:14	124	TrialSecondaParte	advisory	advock	2	1489	1
31	22	Female	Right	A	29/11/2016	14:14:14	125	TrialSecondaParte	narrowly	scull	0	1383	1
31	22	Female	Right	A	29/11/2016	14:14:14	126	TrialSecondaParte	edible	esigh	2	1164	1
31	22	Female	Right	A	29/11/2016	14:14:14	127	TrialSecondaParte	prosecution	leler	2	1150	1
31	22	Female	Right	A	29/11/2016	14:14:14	128	TrialSecondaParte	gluten	glut	1	1209	2
31	22	Female	Right	A	29/11/2016	14:14:14	129	TrialSecondaParte	missive	float	0	913	2
31	22	Female	Right	A	29/11/2016	14:14:14	130	TrialSecondaParte	swotting	chuly	2	1207	1
31	22	Female	Right	A	29/11/2016	14:14:14	131	TrialSecondaParte	genetic	genth	2	971	2
31	22	Female	Right	A	29/11/2016	14:14:14	132	TrialSecondaParte	viewer	view	1	758	2
31	22	Female	Right	A	29/11/2016	14:14:14	133	TrialSecondaParte	illicit	ilkis	2	1234	1
31	22	Female	Right	A	29/11/2016	14:14:14	134	TrialSecondaParte	cranky	crony	2	1170	2
31	22	Female	Right	A	29/11/2016	14:14:14	135	TrialSecondaParte	acidic	acid	1	734	2
31	22	Female	Right	A	29/11/2016	14:14:14	136	TrialSecondaParte	original	orive	2	1097	2
31	22	Female	Right	A	29/11/2016	14:14:14	137	TrialSecondaParte	struggled	neigh	0	1249	2
31	22	Female	Right	A	29/11/2016	14:14:14	138	TrialSecondaParte	opposition	nunfy	2	986	2
31	22	Female	Right	A	29/11/2016	14:14:14	139	TrialSecondaParte	heaven	heave	1	1029	2
31	22	Female	Right	A	29/11/2016	14:14:14	140	TrialSecondaParte	culprit	cuti	2	830	1
31	22	Female	Right	A	29/11/2016	14:14:14	141	TrialSecondaParte	friendly	north	0	827	2
31	22	Female	Right	A	29/11/2016	14:14:14	142	TrialSecondaParte	criminal	huare	2	1525	2
31	22	Female	Right	A	29/11/2016	14:14:14	143	TrialSecondaParte	crafty	craft	1	787	2
31	22	Female	Right	A	29/11/2016	14:14:14	144	TrialSecondaParte	poetry	poet	1	889	2
31	22	Female	Right	A	29/11/2016	14:14:14	145	TrialSecondaParte	sniper	snip	1	1228	1
31	22	Female	Right	A	29/11/2016	14:14:14	146	TrialSecondaParte	signet	sign	1	650	2
31	22	Female	Right	A	29/11/2016	14:14:14	147	TrialSecondaParte	turmoil	furm	2	939	1
31	22	Female	Right	A	29/11/2016	14:14:14	148	TrialSecondaParte	vigilant	vigan	2	860	2
31	22	Female	Right	A	29/11/2016	14:14:14	149	TrialSecondaParte	gastric	waser	2	1240	2
31	22	Female	Right	A	29/11/2016	14:14:14	150	TrialSecondaParte	snobby	snool	2	1000	1
31	22	Female	Right	A	29/11/2016	14:14:14	151	TrialTerzaParte	maximum	suyte	2	1085	2
31	22	Female	Right	A	29/11/2016	14:14:14	152	TrialTerzaParte	plucky	pluck	1	980	2
31	22	Female	Right	A	29/11/2016	14:14:14	153	TrialTerzaParte	farcical	farxy	2	982	2
31	22	Female	Right	A	29/11/2016	14:14:14	154	TrialTerzaParte	believer	append	0	759	2
31	22	Female	Right	A	29/11/2016	14:14:14	155	TrialTerzaParte	adopted	adopt	1	1274	2
31	22	Female	Right	A	29/11/2016	14:14:14	156	TrialTerzaParte	swivel	quat	2	1019	1
31	22	Female	Right	A	29/11/2016	14:14:14	157	TrialTerzaParte	anaesthetic	invest	0	637	2
31	22	Female	Right	A	29/11/2016	14:14:14	158	TrialTerzaParte	hatchery	fighy	2	904	2
31	22	Female	Right	A	29/11/2016	14:14:14	159	TrialTerzaParte	vicarage	erupt	0	985	2
31	22	Female	Right	A	29/11/2016	14:14:14	160	TrialTerzaParte	pummel	syly	2	1020	1
31	22	Female	Right	A	29/11/2016	14:14:14	161	TrialTerzaParte	veteran	venic	2	1074	1
31	22	Female	Right	A	29/11/2016	14:14:14	162	TrialTerzaParte	squawk	squaw	1	1263	1
31	22	Female	Right	A	29/11/2016	14:14:14	163	TrialTerzaParte	revolutionary	intern	0	825	2
31	22	Female	Right	A	29/11/2016	14:14:14	164	TrialTerzaParte	dusty	dusy	2	1294	2
31	22	Female	Right	A	29/11/2016	14:14:14	165	TrialTerzaParte	religious	sisby	2	1295	2
31	22	Female	Right	A	29/11/2016	14:14:14	166	TrialTerzaParte	dialog	dial	1	951	2
31	22	Female	Right	A	29/11/2016	14:14:14	167	TrialTerzaParte	tactile	tact	1	699	2
31	22	Female	Right	A	29/11/2016	14:14:14	168	TrialTerzaParte	galaxy	gala	1	1086	2
31	22	Female	Right	A	29/11/2016	14:14:14	169	TrialTerzaParte	olympic	olick	2	1149	2
31	22	Female	Right	A	29/11/2016	14:14:14	170	TrialTerzaParte	upstart	pumy	2	1369	2
31	22	Female	Right	A	29/11/2016	14:14:14	171	TrialTerzaParte	highlight	gylpo	2	1251	1
31	22	Female	Right	A	29/11/2016	14:14:14	172	TrialTerzaParte	faceless	facmod	2	1050	1
31	22	Female	Right	A	29/11/2016	14:14:14	173	TrialTerzaParte	gaseous	stilt	0	1871	2
31	22	Female	Right	A	29/11/2016	14:14:14	174	TrialTerzaParte	scrooge	plich	2	1155	2
31	22	Female	Right	A	29/11/2016	14:14:14	175	TrialTerzaParte	repertory	repty	2	892	2
31	22	Female	Right	A	29/11/2016	14:14:14	176	TrialTerzaParte	coaster	coast	1	715	2
31	22	Female	Right	A	29/11/2016	14:14:14	177	TrialTerzaParte	toaster	toast	1	563	2
31	22	Female	Right	A	29/11/2016	14:14:14	178	TrialTerzaParte	quartz	quart	1	1417	1
31	22	Female	Right	A	29/11/2016	14:14:14	179	TrialTerzaParte	abstain	abter	2	1403	1
31	22	Female	Right	A	29/11/2016	14:14:14	180	TrialTerzaParte	finally	teach	0	808	2
31	22	Female	Right	A	29/11/2016	14:14:14	181	TrialTerzaParte	distantly	facet	0	1489	1
31	22	Female	Right	A	29/11/2016	14:14:14	182	TrialTerzaParte	sight	sigh	1	846	2
31	22	Female	Right	A	29/11/2016	14:14:14	183	TrialTerzaParte	fixture	strul	2	996	1
31	22	Female	Right	A	29/11/2016	14:14:14	184	TrialTerzaParte	signal	quir	2	865	1
31	22	Female	Right	A	29/11/2016	14:14:14	185	TrialTerzaParte	snobbery	snotty	2	1097	2
31	22	Female	Right	A	29/11/2016	14:14:14	186	TrialTerzaParte	neutron	whese	2	879	2
31	22	Female	Right	A	29/11/2016	14:14:14	187	TrialTerzaParte	whisker	whisk	1	683	2
31	22	Female	Right	A	29/11/2016	14:14:14	188	TrialTerzaParte	situation	govern	0	871	2
31	22	Female	Right	A	29/11/2016	14:14:14	189	TrialTerzaParte	biscuit	bist	2	1075	2
31	22	Female	Right	A	29/11/2016	14:14:14	190	TrialTerzaParte	ability	colon	0	775	2
31	22	Female	Right	A	29/11/2016	14:14:14	191	TrialTerzaParte	epileptic	candid	0	1819	2
31	22	Female	Right	A	29/11/2016	14:14:14	192	TrialTerzaParte	wearily	diet	0	909	2
31	22	Female	Right	A	29/11/2016	14:14:14	193	TrialTerzaParte	production	depart	0	922	2
31	22	Female	Right	A	29/11/2016	14:14:14	194	TrialTerzaParte	jerkin	jerk	1	880	2
31	22	Female	Right	A	29/11/2016	14:14:14	195	TrialTerzaParte	lively	licey	2	957	2
31	22	Female	Right	A	29/11/2016	14:14:14	196	TrialTerzaParte	trashy	rell	2	1085	1
31	22	Female	Right	A	29/11/2016	14:14:14	197	TrialTerzaParte	absence	agsel	2	992	1
31	22	Female	Right	A	29/11/2016	14:14:14	198	TrialTerzaParte	fizzle	fizz	1	1543	1
31	22	Female	Right	A	29/11/2016	14:14:14	199	TrialTerzaParte	classic	clals	2	1252	1
31	22	Female	Right	A	29/11/2016	14:14:14	200	TrialTerzaParte	stroke	cligh	2	1402	1
31	22	Female	Right	A	29/11/2016	14:14:14	201	TrialTerzaParte	citation	fuse	0	841	2
31	22	Female	Right	A	29/11/2016	14:14:14	202	TrialTerzaParte	chilly	chill	1	834	2
31	22	Female	Right	A	29/11/2016	14:14:14	203	TrialTerzaParte	golfer	golf	1	667	2
31	22	Female	Right	A	29/11/2016	14:14:14	204	TrialTerzaParte	supplant	plosy	2	1225	1
31	22	Female	Right	A	29/11/2016	14:14:14	205	TrialTerzaParte	summit	sutty	2	1023	1
31	22	Female	Right	A	29/11/2016	14:14:14	206	TrialTerzaParte	polite	tind	2	687	2
31	22	Female	Right	A	29/11/2016	14:14:14	207	TrialTerzaParte	broiler	plum	0	743	2
31	22	Female	Right	A	29/11/2016	14:14:14	208	TrialTerzaParte	trumpet	trump	1	677	2
31	22	Female	Right	A	29/11/2016	14:14:14	209	TrialTerzaParte	griffin	spoff	2	979	1
31	22	Female	Right	A	29/11/2016	14:14:14	210	TrialTerzaParte	shovel	shove	1	649	2
31	22	Female	Right	A	29/11/2016	14:14:14	211	TrialTerzaParte	calmness	artist	0	1142	2
31	22	Female	Right	A	29/11/2016	14:14:14	212	TrialTerzaParte	unspoilt	nalky	2	1181	2
31	22	Female	Right	A	29/11/2016	14:14:14	213	TrialTerzaParte	nincompoops	ninpoo	2	1401	1
31	22	Female	Right	A	29/11/2016	14:14:14	214	TrialTerzaParte	message	rosty	2	910	2
31	22	Female	Right	A	29/11/2016	14:14:14	215	TrialTerzaParte	simplify	fleet	0	621	2
31	22	Female	Right	A	29/11/2016	14:14:14	216	TrialTerzaParte	service	count	0	1056	2
31	22	Female	Right	A	29/11/2016	14:14:14	217	TrialTerzaParte	manual	mals	2	1092	2
31	22	Female	Right	A	29/11/2016	14:14:14	218	TrialTerzaParte	raffle	rafel	2	1047	2
31	22	Female	Right	A	29/11/2016	14:14:14	219	TrialTerzaParte	asterix	cret	2	928	2
31	22	Female	Right	A	29/11/2016	14:14:14	220	TrialTerzaParte	friar	blyr	2	984	1
31	22	Female	Right	A	29/11/2016	14:14:14	221	TrialTerzaParte	grouse	gruf	2	982	1
31	22	Female	Right	A	29/11/2016	14:14:14	222	TrialTerzaParte	bourbon	boun	2	1369	2
31	22	Female	Right	A	29/11/2016	14:14:14	223	TrialTerzaParte	suburban	elect	0	835	2
31	22	Female	Right	A	29/11/2016	14:14:14	224	TrialTerzaParte	irony	iron	1	684	2
31	22	Female	Right	A	29/11/2016	14:14:14	225	TrialTerzaParte	button	butt	1	1188	1
31	22	Female	Right	A	29/11/2016	14:14:14	226	TrialQuartaParte	trolley	troll	1	680	2
31	22	Female	Right	A	29/11/2016	14:14:14	227	TrialQuartaParte	bearded	beard	1	1004	2
31	22	Female	Right	A	29/11/2016	14:14:14	228	TrialQuartaParte	number	numb	1	703	2
31	22	Female	Right	A	29/11/2016	14:14:14	229	TrialQuartaParte	alcoholic	fruit	0	760	2
31	22	Female	Right	A	29/11/2016	14:14:14	230	TrialQuartaParte	postage	poth	2	955	1
31	22	Female	Right	A	29/11/2016	14:14:14	231	TrialQuartaParte	vertical	verks	2	812	1
31	22	Female	Right	A	29/11/2016	14:14:14	232	TrialQuartaParte	power	mord	2	1127	1
31	22	Female	Right	A	29/11/2016	14:14:14	233	TrialQuartaParte	perhaps	again	0	709	2
31	22	Female	Right	A	29/11/2016	14:14:14	234	TrialQuartaParte	twinkle	twin	1	664	2
31	22	Female	Right	A	29/11/2016	14:14:14	235	TrialQuartaParte	palpably	amen	0	701	2
31	22	Female	Right	A	29/11/2016	14:14:14	236	TrialQuartaParte	mosaic	mip	2	1626	1
31	22	Female	Right	A	29/11/2016	14:14:14	237	TrialQuartaParte	selfless	audit	0	1919	1
31	22	Female	Right	A	29/11/2016	14:14:14	238	TrialQuartaParte	loyally	buzz	0	906	2
31	22	Female	Right	A	29/11/2016	14:14:14	239	TrialQuartaParte	starter	disc	0	838	2
31	22	Female	Right	A	29/11/2016	14:14:14	240	TrialQuartaParte	gluteal	abtle	2	1007	1
31	22	Female	Right	A	29/11/2016	14:14:14	241	TrialQuartaParte	twitch	twit	1	1077	2
31	22	Female	Right	A	29/11/2016	14:14:14	242	TrialQuartaParte	filthy	filth	1	1143	1
31	22	Female	Right	A	29/11/2016	14:14:14	243	TrialQuartaParte	revolutionise	sivert	2	1128	1
31	22	Female	Right	A	29/11/2016	14:14:14	244	TrialQuartaParte	kinetic	kinse	2	1332	1
31	22	Female	Right	A	29/11/2016	14:14:14	245	TrialQuartaParte	yardage	yage	2	1095	2
31	22	Female	Right	A	29/11/2016	14:14:14	246	TrialQuartaParte	foundry	brisk	0	830	2
31	22	Female	Right	A	29/11/2016	14:14:14	247	TrialQuartaParte	blush	blif	2	1160	1
31	22	Female	Right	A	29/11/2016	14:14:14	248	TrialQuartaParte	rancour	brits	2	1036	2
31	22	Female	Right	A	29/11/2016	14:14:14	249	TrialQuartaParte	warfare	broth	0	1324	1
31	22	Female	Right	A	29/11/2016	14:14:14	250	TrialQuartaParte	lethal	lerd	2	1117	2
31	22	Female	Right	A	29/11/2016	14:14:14	251	TrialQuartaParte	plonking	pluny	2	1010	2
31	22	Female	Right	A	29/11/2016	14:14:14	252	TrialQuartaParte	risky	risk	1	640	2
31	22	Female	Right	A	29/11/2016	14:14:14	253	TrialQuartaParte	boarder	board	1	943	2
31	22	Female	Right	A	29/11/2016	14:14:14	254	TrialQuartaParte	tract	trep	2	890	1
31	22	Female	Right	A	29/11/2016	14:14:14	255	TrialQuartaParte	fossilise	oxygen	0	961	2
31	22	Female	Right	A	29/11/2016	14:14:14	256	TrialQuartaParte	plush	plus	1	821	2
31	22	Female	Right	A	29/11/2016	14:14:14	257	TrialQuartaParte	crikey	brize	2	1175	2
31	22	Female	Right	A	29/11/2016	14:14:14	258	TrialQuartaParte	airtight	aith	2	1285	1
31	22	Female	Right	A	29/11/2016	14:14:14	259	TrialQuartaParte	ample	amp	1	1153	2
31	22	Female	Right	A	29/11/2016	14:14:14	260	TrialQuartaParte	scruffy	thick	0	1019	2
31	22	Female	Right	A	29/11/2016	14:14:14	261	TrialQuartaParte	armoury	arwor	2	1012	1
31	22	Female	Right	A	29/11/2016	14:14:14	262	TrialQuartaParte	deficit	dety	2	808	2
31	22	Female	Right	A	29/11/2016	14:14:14	263	TrialQuartaParte	killer	lalf	2	1033	1
31	22	Female	Right	A	29/11/2016	14:14:14	264	TrialQuartaParte	rabbit	rabbi	1	1313	1
31	22	Female	Right	A	29/11/2016	14:14:14	265	TrialQuartaParte	sufferer	gloss	0	800	2
31	22	Female	Right	A	29/11/2016	14:14:14	266	TrialQuartaParte	dreadful	phone	0	741	2
31	22	Female	Right	A	29/11/2016	14:14:14	267	TrialQuartaParte	booklet	text	0	1001	2
31	22	Female	Right	A	29/11/2016	14:14:14	268	TrialQuartaParte	public	pub	1	826	2
31	22	Female	Right	A	29/11/2016	14:14:14	269	TrialQuartaParte	addition	employ	0	768	2
31	22	Female	Right	A	29/11/2016	14:14:14	270	TrialQuartaParte	tackler	lerf	2	806	2
31	22	Female	Right	A	29/11/2016	14:14:14	271	TrialQuartaParte	portal	balp	2	950	1
31	22	Female	Right	A	29/11/2016	14:14:14	272	TrialQuartaParte	tufted	tuft	1	1131	1
31	22	Female	Right	A	29/11/2016	14:14:14	273	TrialQuartaParte	plunder	acre	0	840	2
31	22	Female	Right	A	29/11/2016	14:14:14	274	TrialQuartaParte	daring	dalig	2	1269	2
31	22	Female	Right	A	29/11/2016	14:14:14	275	TrialQuartaParte	glade	glad	1	654	2
31	22	Female	Right	A	29/11/2016	14:14:14	276	TrialQuartaParte	freeze	free	1	785	2
31	22	Female	Right	A	29/11/2016	14:14:14	277	TrialQuartaParte	timidly	arse	0	880	2
31	22	Female	Right	A	29/11/2016	14:14:14	278	TrialQuartaParte	vengeful	cherb	2	1127	1
31	22	Female	Right	A	29/11/2016	14:14:14	279	TrialQuartaParte	ambush	amshy	2	1582	1
31	22	Female	Right	A	29/11/2016	14:14:14	280	TrialQuartaParte	brandy	brand	1	1248	2
31	22	Female	Right	A	29/11/2016	14:14:14	281	TrialQuartaParte	scanner	rast	2	713	2
31	22	Female	Right	A	29/11/2016	14:14:14	282	TrialQuartaParte	guilty	guilt	1	870	2
31	22	Female	Right	A	29/11/2016	14:14:14	283	TrialQuartaParte	amateurish	inhibit	0	1111	2
31	22	Female	Right	A	29/11/2016	14:14:14	284	TrialQuartaParte	marshy	marsh	1	1012	2
31	22	Female	Right	A	29/11/2016	14:14:14	285	TrialQuartaParte	paternal	siter	2	933	2
31	22	Female	Right	A	29/11/2016	14:14:14	286	TrialQuartaParte	mimicry	quiet	0	724	2
31	22	Female	Right	A	29/11/2016	14:14:14	287	TrialQuartaParte	justify	extra	0	628	2
31	22	Female	Right	A	29/11/2016	14:14:14	288	TrialQuartaParte	cousin	coul	2	1209	2
31	22	Female	Right	A	29/11/2016	14:14:14	289	TrialQuartaParte	putty	putt	1	1540	2
31	22	Female	Right	A	29/11/2016	14:14:14	290	TrialQuartaParte	reliable	blidar	2	1205	2
31	22	Female	Right	A	29/11/2016	14:14:14	291	TrialQuartaParte	piratical	pirent	2	928	2
31	22	Female	Right	A	29/11/2016	14:14:14	292	TrialQuartaParte	steadily	ration	0	851	2
31	22	Female	Right	A	29/11/2016	14:14:14	293	TrialQuartaParte	fanatic	fanty	2	674	2
31	22	Female	Right	A	29/11/2016	14:14:14	294	TrialQuartaParte	haulier	halfe	2	835	2
31	22	Female	Right	A	29/11/2016	14:14:14	295	TrialQuartaParte	geisha	crove	2	685	2
31	22	Female	Right	A	29/11/2016	14:14:14	296	TrialQuartaParte	decision	posig	2	1197	2
31	22	Female	Right	A	29/11/2016	14:14:14	297	TrialQuartaParte	grossly	villa	0	1466	1
31	22	Female	Right	A	29/11/2016	14:14:14	298	TrialQuartaParte	child	sild	2	1602	2
31	22	Female	Right	A	29/11/2016	14:14:14	299	TrialQuartaParte	moisture	stub	0	1221	1
31	22	Female	Right	A	29/11/2016	14:14:14	300	TrialQuartaParte	category	cagre	2	1053	1
