Subject	Age	Gender	Handedness	Rotation	Data	OraStart	TrialCount	TrialType	Prime	Target	Relatedness	rt	Resp
20	25	Male	Right	B	16/11/2016	17:29:07	1	Prova	wellness	well	4	116729	2
20	25	Male	Right	B	16/11/2016	17:29:07	2	Prova	homeless	home	4	408	2
20	25	Male	Right	B	16/11/2016	17:29:07	3	Prova	tricky	tricker	4	604	2
20	25	Male	Right	B	16/11/2016	17:29:07	4	Prova	character	char	4	332	1
20	25	Male	Right	B	16/11/2016	17:29:07	5	Prova	translater	pulter	4	518	1
20	25	Male	Right	B	16/11/2016	17:29:07	6	Prova2	escape	exat	4	1110	1
20	25	Male	Right	B	16/11/2016	17:29:07	7	Prova2	investigator	invest	4	643	2
20	25	Male	Right	B	16/11/2016	17:29:07	8	Prova2	examiner	exam	4	402	2
20	25	Male	Right	B	16/11/2016	17:29:07	9	Prova2	topic	top	4	472	2
20	25	Male	Right	B	16/11/2016	17:29:07	1	Warmup	unpack	pack	5	473	2
20	25	Male	Right	B	16/11/2016	17:29:07	2	Warmup	tartare	tariff	5	589	1
20	25	Male	Right	B	16/11/2016	17:29:07	3	Warmup	cowrie	sturms	5	523	1
20	25	Male	Right	B	16/11/2016	17:29:07	4	Warmup	cortex	newbie	5	696	2
20	25	Male	Right	B	16/11/2016	17:29:07	5	Warmup	pullma	pulm	5	501	2
20	25	Male	Right	B	16/11/2016	17:29:07	1	TrialPrimaParte	brutal	helm	0	540	2
20	25	Male	Right	B	16/11/2016	17:29:07	2	TrialPrimaParte	employer	employ	1	465	2
20	25	Male	Right	B	16/11/2016	17:29:07	3	TrialPrimaParte	genetic	genth	2	482	1
20	25	Male	Right	B	16/11/2016	17:29:07	4	TrialPrimaParte	sensuous	secly	2	446	1
20	25	Male	Right	B	16/11/2016	17:29:07	5	TrialPrimaParte	manly	weir	0	121	1
20	25	Male	Right	B	16/11/2016	17:29:07	6	TrialPrimaParte	oxygenate	oxygen	1	701	2
20	25	Male	Right	B	16/11/2016	17:29:07	7	TrialPrimaParte	downs	risk	0	833	2
20	25	Male	Right	B	16/11/2016	17:29:07	8	TrialPrimaParte	graphic	blamp	2	471	1
20	25	Male	Right	B	16/11/2016	17:29:07	9	TrialPrimaParte	manual	mals	2	448	1
20	25	Male	Right	B	16/11/2016	17:29:07	10	TrialPrimaParte	renewable	renew	1	546	1
20	25	Male	Right	B	16/11/2016	17:29:07	11	TrialPrimaParte	neighbour	neigh	1	587	2
20	25	Male	Right	B	16/11/2016	17:29:07	12	TrialPrimaParte	colonel	colon	1	441	2
20	25	Male	Right	B	16/11/2016	17:29:07	13	TrialPrimaParte	scanner	rast	2	860	1
20	25	Male	Right	B	16/11/2016	17:29:07	14	TrialPrimaParte	tract	trep	2	665	1
20	25	Male	Right	B	16/11/2016	17:29:07	15	TrialPrimaParte	facetious	facet	1	659	2
20	25	Male	Right	B	16/11/2016	17:29:07	16	TrialPrimaParte	veteran	venic	2	742	1
20	25	Male	Right	B	16/11/2016	17:29:07	17	TrialPrimaParte	itchy	shun	0	1158	1
20	25	Male	Right	B	16/11/2016	17:29:07	18	TrialPrimaParte	trashy	rell	2	951	1
20	25	Male	Right	B	16/11/2016	17:29:07	19	TrialPrimaParte	tributary	calin	2	599	1
20	25	Male	Right	B	16/11/2016	17:29:07	20	TrialPrimaParte	appendix	append	1	929	1
20	25	Male	Right	B	16/11/2016	17:29:07	21	TrialPrimaParte	fabulous	smaply	2	606	1
20	25	Male	Right	B	16/11/2016	17:29:07	22	TrialPrimaParte	teacher	teach	1	1618	2
20	25	Male	Right	B	16/11/2016	17:29:07	23	TrialPrimaParte	sovereign	sovign	2	578	1
20	25	Male	Right	B	16/11/2016	17:29:07	24	TrialPrimaParte	leftist	bulb	0	589	2
20	25	Male	Right	B	16/11/2016	17:29:07	25	TrialPrimaParte	courteous	court	1	465	2
20	25	Male	Right	B	16/11/2016	17:29:07	26	TrialPrimaParte	artistry	artist	1	495	2
20	25	Male	Right	B	16/11/2016	17:29:07	27	TrialPrimaParte	swivel	quat	2	548	2
20	25	Male	Right	B	16/11/2016	17:29:07	28	TrialPrimaParte	eruption	erupt	1	544	2
20	25	Male	Right	B	16/11/2016	17:29:07	29	TrialPrimaParte	filmy	plus	0	675	2
20	25	Male	Right	B	16/11/2016	17:29:07	30	TrialPrimaParte	kingdom	adopt	0	544	2
20	25	Male	Right	B	16/11/2016	17:29:07	31	TrialPrimaParte	audition	audit	1	1357	2
20	25	Male	Right	B	16/11/2016	17:29:07	32	TrialPrimaParte	pottery	crook	0	896	2
20	25	Male	Right	B	16/11/2016	17:29:07	33	TrialPrimaParte	vertical	verks	2	581	1
20	25	Male	Right	B	16/11/2016	17:29:07	34	TrialPrimaParte	international	intern	1	508	2
20	25	Male	Right	B	16/11/2016	17:29:07	35	TrialPrimaParte	scullery	scull	1	795	1
20	25	Male	Right	B	16/11/2016	17:29:07	36	TrialPrimaParte	upstart	pumy	2	506	1
20	25	Male	Right	B	16/11/2016	17:29:07	37	TrialPrimaParte	oddity	squaw	0	657	1
20	25	Male	Right	B	16/11/2016	17:29:07	38	TrialPrimaParte	bridal	glut	0	485	1
20	25	Male	Right	B	16/11/2016	17:29:07	39	TrialPrimaParte	thicket	thick	1	585	2
20	25	Male	Right	B	16/11/2016	17:29:07	40	TrialPrimaParte	olympic	olick	2	563	1
20	25	Male	Right	B	16/11/2016	17:29:07	41	TrialPrimaParte	scrooge	plich	2	472	1
20	25	Male	Right	B	16/11/2016	17:29:07	42	TrialPrimaParte	legendary	legend	1	455	2
20	25	Male	Right	B	16/11/2016	17:29:07	43	TrialPrimaParte	coyness	whisk	0	736	1
20	25	Male	Right	B	16/11/2016	17:29:07	44	TrialPrimaParte	supplant	plosy	2	565	1
20	25	Male	Right	B	16/11/2016	17:29:07	45	TrialPrimaParte	passel	turp	2	577	1
20	25	Male	Right	B	16/11/2016	17:29:07	46	TrialPrimaParte	faceless	facmod	2	663	1
20	25	Male	Right	B	16/11/2016	17:29:07	47	TrialPrimaParte	within	earl	0	965	2
20	25	Male	Right	B	16/11/2016	17:29:07	48	TrialPrimaParte	raffle	rafel	2	637	1
20	25	Male	Right	B	16/11/2016	17:29:07	49	TrialPrimaParte	department	depart	1	551	2
20	25	Male	Right	B	16/11/2016	17:29:07	50	TrialPrimaParte	child	sild	2	519	1
20	25	Male	Right	B	16/11/2016	17:29:07	51	TrialPrimaParte	active	blood	0	488	2
20	25	Male	Right	B	16/11/2016	17:29:07	52	TrialPrimaParte	itinerary	itiner	2	1560	1
20	25	Male	Right	B	16/11/2016	17:29:07	53	TrialPrimaParte	brothel	broth	1	672	2
20	25	Male	Right	B	16/11/2016	17:29:07	54	TrialPrimaParte	angelic	angel	1	478	2
20	25	Male	Right	B	16/11/2016	17:29:07	55	TrialPrimaParte	buzzard	buzz	1	563	2
20	25	Male	Right	B	16/11/2016	17:29:07	56	TrialPrimaParte	surgeon	surge	1	771	2
20	25	Male	Right	B	16/11/2016	17:29:07	57	TrialPrimaParte	yearly	acid	0	494	2
20	25	Male	Right	B	16/11/2016	17:29:07	58	TrialPrimaParte	yardage	yage	2	686	1
20	25	Male	Right	B	16/11/2016	17:29:07	59	TrialPrimaParte	muffler	coast	0	539	2
20	25	Male	Right	B	16/11/2016	17:29:07	60	TrialPrimaParte	signal	quir	2	717	1
20	25	Male	Right	B	16/11/2016	17:29:07	61	TrialPrimaParte	alarming	alarm	1	479	2
20	25	Male	Right	B	16/11/2016	17:29:07	62	TrialPrimaParte	chatter	trump	0	526	2
20	25	Male	Right	B	16/11/2016	17:29:07	63	TrialPrimaParte	snobby	snool	2	658	1
20	25	Male	Right	B	16/11/2016	17:29:07	64	TrialPrimaParte	watery	cream	0	512	2
20	25	Male	Right	B	16/11/2016	17:29:07	65	TrialPrimaParte	opposition	nunfy	2	516	1
20	25	Male	Right	B	16/11/2016	17:29:07	66	TrialPrimaParte	electron	elect	1	604	2
20	25	Male	Right	B	16/11/2016	17:29:07	67	TrialPrimaParte	hourly	snip	0	542	1
20	25	Male	Right	B	16/11/2016	17:29:07	68	TrialPrimaParte	fishy	putt	0	661	1
20	25	Male	Right	B	16/11/2016	17:29:07	69	TrialPrimaParte	clanger	spant	2	581	1
20	25	Male	Right	B	16/11/2016	17:29:07	70	TrialPrimaParte	greenery	green	1	503	2
20	25	Male	Right	B	16/11/2016	17:29:07	71	TrialPrimaParte	crush	bemp	2	710	1
20	25	Male	Right	B	16/11/2016	17:29:07	72	TrialPrimaParte	really	numb	0	542	2
20	25	Male	Right	B	16/11/2016	17:29:07	73	TrialPrimaParte	plaintiff	plain	1	605	2
20	25	Male	Right	B	16/11/2016	17:29:07	74	TrialPrimaParte	cryptic	crypt	1	601	2
20	25	Male	Right	B	16/11/2016	17:29:07	75	TrialPrimaParte	advisory	advock	2	806	1
20	25	Male	Right	B	16/11/2016	17:29:07	76	TrialSecondaParte	sleet	slit	2	491	2
20	25	Male	Right	B	16/11/2016	17:29:07	77	TrialSecondaParte	halogen	haly	2	530	1
20	25	Male	Right	B	16/11/2016	17:29:07	78	TrialSecondaParte	candidacy	candid	1	625	2
20	25	Male	Right	B	16/11/2016	17:29:07	79	TrialSecondaParte	absence	agsel	2	503	1
20	25	Male	Right	B	16/11/2016	17:29:07	80	TrialSecondaParte	widen	amp	0	465	1
20	25	Male	Right	B	16/11/2016	17:29:07	81	TrialSecondaParte	neutron	whese	2	759	1
20	25	Male	Right	B	16/11/2016	17:29:07	82	TrialSecondaParte	summit	sutty	2	425	1
20	25	Male	Right	B	16/11/2016	17:29:07	83	TrialSecondaParte	socialiser	flepity	2	510	1
20	25	Male	Right	B	16/11/2016	17:29:07	84	TrialSecondaParte	answer	anwe	2	673	1
20	25	Male	Right	B	16/11/2016	17:29:07	85	TrialSecondaParte	portal	balp	2	615	1
20	25	Male	Right	B	16/11/2016	17:29:07	86	TrialSecondaParte	awaken	tood	2	514	2
20	25	Male	Right	B	16/11/2016	17:29:07	87	TrialSecondaParte	moulder	moure	2	713	1
20	25	Male	Right	B	16/11/2016	17:29:07	88	TrialSecondaParte	buoyant	stir	0	602	2
20	25	Male	Right	B	16/11/2016	17:29:07	89	TrialSecondaParte	swotting	chuly	2	472	1
20	25	Male	Right	B	16/11/2016	17:29:07	90	TrialSecondaParte	fibrosis	shuar	2	530	1
20	25	Male	Right	B	16/11/2016	17:29:07	91	TrialSecondaParte	crikey	brize	2	492	1
20	25	Male	Right	B	16/11/2016	17:29:07	92	TrialSecondaParte	country	count	1	698	2
20	25	Male	Right	B	16/11/2016	17:29:07	93	TrialSecondaParte	amenable	amen	1	604	2
20	25	Male	Right	B	16/11/2016	17:29:07	94	TrialSecondaParte	farcical	farxy	2	592	1
20	25	Male	Right	B	16/11/2016	17:29:07	95	TrialSecondaParte	twelfth	smug	0	598	2
20	25	Male	Right	B	16/11/2016	17:29:07	96	TrialSecondaParte	reaction	react	1	455	2
20	25	Male	Right	B	16/11/2016	17:29:07	97	TrialSecondaParte	foetal	fongs	2	538	1
20	25	Male	Right	B	16/11/2016	17:29:07	98	TrialSecondaParte	plonking	pluny	2	737	1
20	25	Male	Right	B	16/11/2016	17:29:07	99	TrialSecondaParte	baronet	baron	1	487	2
20	25	Male	Right	B	16/11/2016	17:29:07	100	TrialSecondaParte	prudish	force	0	559	2
20	25	Male	Right	B	16/11/2016	17:29:07	101	TrialSecondaParte	polite	tind	2	1466	1
20	25	Male	Right	B	16/11/2016	17:29:07	102	TrialSecondaParte	silken	tuft	0	991	2
20	25	Male	Right	B	16/11/2016	17:29:07	103	TrialSecondaParte	angler	treat	0	527	2
20	25	Male	Right	B	16/11/2016	17:29:07	104	TrialSecondaParte	scalding	scald	1	805	1
20	25	Male	Right	B	16/11/2016	17:29:07	105	TrialSecondaParte	ethereal	ether	1	539	2
20	25	Male	Right	B	16/11/2016	17:29:07	106	TrialSecondaParte	blush	blif	2	553	1
20	25	Male	Right	B	16/11/2016	17:29:07	107	TrialSecondaParte	message	rosty	2	713	2
20	25	Male	Right	B	16/11/2016	17:29:07	108	TrialSecondaParte	touchy	fizz	0	737	1
20	25	Male	Right	B	16/11/2016	17:29:07	109	TrialSecondaParte	dietary	diet	1	452	2
20	25	Male	Right	B	16/11/2016	17:29:07	110	TrialSecondaParte	acutely	nymph	0	677	2
20	25	Male	Right	B	16/11/2016	17:29:07	111	TrialSecondaParte	gaiety	harse	2	661	2
20	25	Male	Right	B	16/11/2016	17:29:07	112	TrialSecondaParte	northern	north	1	487	2
20	25	Male	Right	B	16/11/2016	17:29:07	113	TrialSecondaParte	syphilis	ruar	2	756	1
20	25	Male	Right	B	16/11/2016	17:29:07	114	TrialSecondaParte	paternal	siter	2	1039	1
20	25	Male	Right	B	16/11/2016	17:29:07	115	TrialSecondaParte	cookery	train	0	519	2
20	25	Male	Right	B	16/11/2016	17:29:07	116	TrialSecondaParte	thorny	marsh	0	556	1
20	25	Male	Right	B	16/11/2016	17:29:07	117	TrialSecondaParte	nincompoops	ninpoo	2	690	1
20	25	Male	Right	B	16/11/2016	17:29:07	118	TrialSecondaParte	education	educon	2	670	1
20	25	Male	Right	B	16/11/2016	17:29:07	119	TrialSecondaParte	stressful	abgaid	2	749	1
20	25	Male	Right	B	16/11/2016	17:29:07	120	TrialSecondaParte	grueling	gruel	1	842	2
20	25	Male	Right	B	16/11/2016	17:29:07	121	TrialSecondaParte	pummel	syly	2	691	1
20	25	Male	Right	B	16/11/2016	17:29:07	122	TrialSecondaParte	bubble	glef	2	604	1
20	25	Male	Right	B	16/11/2016	17:29:07	123	TrialSecondaParte	gently	pub	0	662	2
20	25	Male	Right	B	16/11/2016	17:29:07	124	TrialSecondaParte	pottage	posch	2	576	1
20	25	Male	Right	B	16/11/2016	17:29:07	125	TrialSecondaParte	illicit	ilkis	2	541	1
20	25	Male	Right	B	16/11/2016	17:29:07	126	TrialSecondaParte	fisher	fims	2	867	1
20	25	Male	Right	B	16/11/2016	17:29:07	127	TrialSecondaParte	sudden	verty	2	601	1
20	25	Male	Right	B	16/11/2016	17:29:07	128	TrialSecondaParte	rebound	cous	2	1431	1
20	25	Male	Right	B	16/11/2016	17:29:07	129	TrialSecondaParte	legacy	lecy	2	608	1
20	25	Male	Right	B	16/11/2016	17:29:07	130	TrialSecondaParte	penguin	phorb	2	563	1
20	25	Male	Right	B	16/11/2016	17:29:07	131	TrialSecondaParte	golden	free	0	558	2
20	25	Male	Right	B	16/11/2016	17:29:07	132	TrialSecondaParte	liquidate	liquid	1	459	2
20	25	Male	Right	B	16/11/2016	17:29:07	133	TrialSecondaParte	wishful	toast	0	456	2
20	25	Male	Right	B	16/11/2016	17:29:07	134	TrialSecondaParte	roller	quart	0	678	1
20	25	Male	Right	B	16/11/2016	17:29:07	135	TrialSecondaParte	weekly	rabbi	0	598	1
20	25	Male	Right	B	16/11/2016	17:29:07	136	TrialSecondaParte	power	mord	2	951	1
20	25	Male	Right	B	16/11/2016	17:29:07	137	TrialSecondaParte	secretary	secret	1	461	2
20	25	Male	Right	B	16/11/2016	17:29:07	138	TrialSecondaParte	killer	lalf	2	597	1
20	25	Male	Right	B	16/11/2016	17:29:07	139	TrialSecondaParte	fixture	strul	2	650	1
20	25	Male	Right	B	16/11/2016	17:29:07	140	TrialSecondaParte	cheaply	twin	0	551	2
20	25	Male	Right	B	16/11/2016	17:29:07	141	TrialSecondaParte	original	orive	2	607	1
20	25	Male	Right	B	16/11/2016	17:29:07	142	TrialSecondaParte	lately	dial	0	651	2
20	25	Male	Right	B	16/11/2016	17:29:07	143	TrialSecondaParte	abstract	fewtu	2	496	1
20	25	Male	Right	B	16/11/2016	17:29:07	144	TrialSecondaParte	phonetic	phone	1	530	2
20	25	Male	Right	B	16/11/2016	17:29:07	145	TrialSecondaParte	cuffs	glad	0	624	2
20	25	Male	Right	B	16/11/2016	17:29:07	146	TrialSecondaParte	kinetic	kinse	2	527	1
20	25	Male	Right	B	16/11/2016	17:29:07	147	TrialSecondaParte	repertory	repty	2	628	1
20	25	Male	Right	B	16/11/2016	17:29:07	148	TrialSecondaParte	skylight	skigh	2	500	1
20	25	Male	Right	B	16/11/2016	17:29:07	149	TrialSecondaParte	finely	chill	0	519	2
20	25	Male	Right	B	16/11/2016	17:29:07	150	TrialSecondaParte	prayer	butt	0	545	2
20	25	Male	Right	B	16/11/2016	17:29:07	151	TrialTerzaParte	dreamer	dream	1	640	2
20	25	Male	Right	B	16/11/2016	17:29:07	152	TrialTerzaParte	tricky	shove	0	681	2
20	25	Male	Right	B	16/11/2016	17:29:07	153	TrialTerzaParte	damsel	dalp	2	447	1
20	25	Male	Right	B	16/11/2016	17:29:07	154	TrialTerzaParte	hydration	povic	2	448	1
20	25	Male	Right	B	16/11/2016	17:29:07	155	TrialTerzaParte	mosaic	mip	2	386	1
20	25	Male	Right	B	16/11/2016	17:29:07	156	TrialTerzaParte	inherent	inpock	2	443	1
20	25	Male	Right	B	16/11/2016	17:29:07	157	TrialTerzaParte	edible	esigh	2	440	1
20	25	Male	Right	B	16/11/2016	17:29:07	158	TrialTerzaParte	fuselage	fuse	1	541	2
20	25	Male	Right	B	16/11/2016	17:29:07	159	TrialTerzaParte	bourbon	boun	2	651	1
20	25	Male	Right	B	16/11/2016	17:29:07	160	TrialTerzaParte	smelly	thuly	2	475	1
20	25	Male	Right	B	16/11/2016	17:29:07	161	TrialTerzaParte	misty	stun	0	812	2
20	25	Male	Right	B	16/11/2016	17:29:07	162	TrialTerzaParte	maximum	suyte	2	469	1
20	25	Male	Right	B	16/11/2016	17:29:07	163	TrialTerzaParte	vainly	craft	0	464	2
20	25	Male	Right	B	16/11/2016	17:29:07	164	TrialTerzaParte	unique	unzed	2	435	1
20	25	Male	Right	B	16/11/2016	17:29:07	165	TrialTerzaParte	lively	licey	2	974	2
20	25	Male	Right	B	16/11/2016	17:29:07	166	TrialTerzaParte	lethal	lerd	2	517	2
20	25	Male	Right	B	16/11/2016	17:29:07	167	TrialTerzaParte	merrier	merks	2	474	1
20	25	Male	Right	B	16/11/2016	17:29:07	168	TrialTerzaParte	gifted	pulp	0	509	2
20	25	Male	Right	B	16/11/2016	17:29:07	169	TrialTerzaParte	religious	sisby	2	438	1
20	25	Male	Right	B	16/11/2016	17:29:07	170	TrialTerzaParte	surface	surf	1	412	2
20	25	Male	Right	B	16/11/2016	17:29:07	171	TrialTerzaParte	factual	board	0	511	2
20	25	Male	Right	B	16/11/2016	17:29:07	172	TrialTerzaParte	lovers	flesh	0	584	2
20	25	Male	Right	B	16/11/2016	17:29:07	173	TrialTerzaParte	daring	dalig	2	585	1
20	25	Male	Right	B	16/11/2016	17:29:07	174	TrialTerzaParte	engage	yurd	2	789	1
20	25	Male	Right	B	16/11/2016	17:29:07	175	TrialTerzaParte	others	unit	0	530	2
20	25	Male	Right	B	16/11/2016	17:29:07	176	TrialTerzaParte	plastic	spaxe	2	493	1
20	25	Male	Right	B	16/11/2016	17:29:07	177	TrialTerzaParte	linkage	flion	2	651	1
20	25	Male	Right	B	16/11/2016	17:29:07	178	TrialTerzaParte	snobbery	snotty	2	488	1
20	25	Male	Right	B	16/11/2016	17:29:07	179	TrialTerzaParte	formal	guilt	0	490	2
20	25	Male	Right	B	16/11/2016	17:29:07	180	TrialTerzaParte	heroic	soft	0	501	2
20	25	Male	Right	B	16/11/2016	17:29:07	181	TrialTerzaParte	leaflet	organ	0	428	2
20	25	Male	Right	B	16/11/2016	17:29:07	182	TrialTerzaParte	jetty	kuty	2	421	1
20	25	Male	Right	B	16/11/2016	17:29:07	183	TrialTerzaParte	spindly	tact	0	446	2
20	25	Male	Right	B	16/11/2016	17:29:07	184	TrialTerzaParte	difference	difrol	2	478	1
20	25	Male	Right	B	16/11/2016	17:29:07	185	TrialTerzaParte	gluteal	abtle	2	552	1
20	25	Male	Right	B	16/11/2016	17:29:07	186	TrialTerzaParte	haulier	halfe	2	646	1
20	25	Male	Right	B	16/11/2016	17:29:07	187	TrialTerzaParte	vigilant	vigan	2	566	1
20	25	Male	Right	B	16/11/2016	17:29:07	188	TrialTerzaParte	basilisk	basil	1	522	2
20	25	Male	Right	B	16/11/2016	17:29:07	189	TrialTerzaParte	feudal	arch	0	449	2
20	25	Male	Right	B	16/11/2016	17:29:07	190	TrialTerzaParte	centimetres	censar	2	591	1
20	25	Male	Right	B	16/11/2016	17:29:07	191	TrialTerzaParte	culprit	cuti	2	528	1
20	25	Male	Right	B	16/11/2016	17:29:07	192	TrialTerzaParte	command	comma	1	453	1
20	25	Male	Right	B	16/11/2016	17:29:07	193	TrialTerzaParte	twisty	jerk	0	520	2
20	25	Male	Right	B	16/11/2016	17:29:07	194	TrialTerzaParte	crummy	meye	2	469	1
20	25	Male	Right	B	16/11/2016	17:29:07	195	TrialTerzaParte	fruitless	fruit	1	434	2
20	25	Male	Right	B	16/11/2016	17:29:07	196	TrialTerzaParte	unspoilt	nalky	2	429	1
20	25	Male	Right	B	16/11/2016	17:29:07	197	TrialTerzaParte	thinker	beard	0	407	2
20	25	Male	Right	B	16/11/2016	17:29:07	198	TrialTerzaParte	rational	ration	1	404	2
20	25	Male	Right	B	16/11/2016	17:29:07	199	TrialTerzaParte	monastery	fagor	2	614	1
20	25	Male	Right	B	16/11/2016	17:29:07	200	TrialTerzaParte	folder	heart	0	458	2
20	25	Male	Right	B	16/11/2016	17:29:07	201	TrialTerzaParte	miller	gloom	0	547	2
20	25	Male	Right	B	16/11/2016	17:29:07	202	TrialTerzaParte	naughty	troll	0	523	2
20	25	Male	Right	B	16/11/2016	17:29:07	203	TrialTerzaParte	postage	poth	2	504	1
20	25	Male	Right	B	16/11/2016	17:29:07	204	TrialTerzaParte	brisket	brisk	1	625	2
20	25	Male	Right	B	16/11/2016	17:29:07	205	TrialTerzaParte	tripper	mourn	0	627	2
20	25	Male	Right	B	16/11/2016	17:29:07	206	TrialTerzaParte	reliable	blidar	2	577	1
20	25	Male	Right	B	16/11/2016	17:29:07	207	TrialTerzaParte	griffin	spoff	2	498	1
20	25	Male	Right	B	16/11/2016	17:29:07	208	TrialTerzaParte	critical	critic	1	452	2
20	25	Male	Right	B	16/11/2016	17:29:07	209	TrialTerzaParte	inventory	invent	1	444	2
20	25	Male	Right	B	16/11/2016	17:29:07	210	TrialTerzaParte	ambush	amshy	2	528	1
20	25	Male	Right	B	16/11/2016	17:29:07	211	TrialTerzaParte	lessen	bomb	0	591	2
20	25	Male	Right	B	16/11/2016	17:29:07	212	TrialTerzaParte	plumage	plum	1	419	2
20	25	Male	Right	B	16/11/2016	17:29:07	213	TrialTerzaParte	analogy	anopy	2	801	2
20	25	Male	Right	B	16/11/2016	17:29:07	214	TrialTerzaParte	vengeful	cherb	2	759	1
20	25	Male	Right	B	16/11/2016	17:29:07	215	TrialTerzaParte	stubborn	stub	1	1369	2
20	25	Male	Right	B	16/11/2016	17:29:07	216	TrialTerzaParte	tamponade	ruffy	2	652	1
20	25	Male	Right	B	16/11/2016	17:29:07	217	TrialTerzaParte	beastly	widow	0	559	2
20	25	Male	Right	B	16/11/2016	17:29:07	218	TrialTerzaParte	ribbon	ribed	2	629	1
20	25	Male	Right	B	16/11/2016	17:29:07	219	TrialTerzaParte	dusty	dusy	2	556	1
20	25	Male	Right	B	16/11/2016	17:29:07	220	TrialTerzaParte	agreement	agree	1	542	2
20	25	Male	Right	B	16/11/2016	17:29:07	221	TrialTerzaParte	decision	posig	2	462	1
20	25	Male	Right	B	16/11/2016	17:29:07	222	TrialTerzaParte	cranky	crony	2	466	1
20	25	Male	Right	B	16/11/2016	17:29:07	223	TrialTerzaParte	acreage	acre	1	764	2
20	25	Male	Right	B	16/11/2016	17:29:07	224	TrialTerzaParte	classic	clals	2	592	1
20	25	Male	Right	B	16/11/2016	17:29:07	225	TrialTerzaParte	rancour	brits	2	521	1
20	25	Male	Right	B	16/11/2016	17:29:07	226	TrialQuartaParte	deficit	dety	2	849	1
20	25	Male	Right	B	16/11/2016	17:29:07	227	TrialQuartaParte	desert	dert	2	792	1
20	25	Male	Right	B	16/11/2016	17:29:07	228	TrialQuartaParte	parenthesis	parent	1	435	2
20	25	Male	Right	B	16/11/2016	17:29:07	229	TrialQuartaParte	cousin	coul	2	499	2
20	25	Male	Right	B	16/11/2016	17:29:07	230	TrialQuartaParte	investigate	invest	1	416	2
20	25	Male	Right	B	16/11/2016	17:29:07	231	TrialQuartaParte	dealer	poet	0	492	2
20	25	Male	Right	B	16/11/2016	17:29:07	232	TrialQuartaParte	content	conly	2	468	1
20	25	Male	Right	B	16/11/2016	17:29:07	233	TrialQuartaParte	abstain	abter	2	527	1
20	25	Male	Right	B	16/11/2016	17:29:07	234	TrialQuartaParte	passant	pasks	2	448	1
20	25	Male	Right	B	16/11/2016	17:29:07	235	TrialQuartaParte	question	quest	1	399	2
20	25	Male	Right	B	16/11/2016	17:29:07	236	TrialQuartaParte	inhibitory	inhibit	1	542	2
20	25	Male	Right	B	16/11/2016	17:29:07	237	TrialQuartaParte	gravel	flixy	2	654	1
20	25	Male	Right	B	16/11/2016	17:29:07	238	TrialQuartaParte	lesser	twit	0	450	2
20	25	Male	Right	B	16/11/2016	17:29:07	239	TrialQuartaParte	criminal	huare	2	491	1
20	25	Male	Right	B	16/11/2016	17:29:07	240	TrialQuartaParte	utter	uls	2	435	1
20	25	Male	Right	B	16/11/2016	17:29:07	241	TrialQuartaParte	demonstrate	demon	1	450	2
20	25	Male	Right	B	16/11/2016	17:29:07	242	TrialQuartaParte	winger	pluck	0	531	1
20	25	Male	Right	B	16/11/2016	17:29:07	243	TrialQuartaParte	prosecution	leler	2	478	1
20	25	Male	Right	B	16/11/2016	17:29:07	244	TrialQuartaParte	dragon	dron	2	599	1
20	25	Male	Right	B	16/11/2016	17:29:07	245	TrialQuartaParte	cloudless	cloud	1	439	2
20	25	Male	Right	B	16/11/2016	17:29:07	246	TrialQuartaParte	villain	villa	1	691	2
20	25	Male	Right	B	16/11/2016	17:29:07	247	TrialQuartaParte	stroke	cligh	2	656	1
20	25	Male	Right	B	16/11/2016	17:29:07	248	TrialQuartaParte	extract	extra	1	759	2
20	25	Male	Right	B	16/11/2016	17:29:07	249	TrialQuartaParte	ranger	view	0	510	2
20	25	Male	Right	B	16/11/2016	17:29:07	250	TrialQuartaParte	stilted	stilt	1	750	2
20	25	Male	Right	B	16/11/2016	17:29:07	251	TrialQuartaParte	textile	text	1	459	2
20	25	Male	Right	B	16/11/2016	17:29:07	252	TrialQuartaParte	hatchery	fighy	2	590	1
20	25	Male	Right	B	16/11/2016	17:29:07	253	TrialQuartaParte	friar	blyr	2	460	1
20	25	Male	Right	B	16/11/2016	17:29:07	254	TrialQuartaParte	grouse	gruf	2	414	1
20	25	Male	Right	B	16/11/2016	17:29:07	255	TrialQuartaParte	vivacious	vicis	2	607	1
20	25	Male	Right	B	16/11/2016	17:29:07	256	TrialQuartaParte	ceramic	cerbs	2	518	1
20	25	Male	Right	B	16/11/2016	17:29:07	257	TrialQuartaParte	quieten	quiet	1	391	2
20	25	Male	Right	B	16/11/2016	17:29:07	258	TrialQuartaParte	glossary	gloss	1	577	2
20	25	Male	Right	B	16/11/2016	17:29:07	259	TrialQuartaParte	harden	filth	0	543	2
20	25	Male	Right	B	16/11/2016	17:29:07	260	TrialQuartaParte	category	cagre	2	525	1
20	25	Male	Right	B	16/11/2016	17:29:07	261	TrialQuartaParte	piratical	pirent	2	751	1
20	25	Male	Right	B	16/11/2016	17:29:07	262	TrialQuartaParte	maternal	malern	2	537	1
20	25	Male	Right	B	16/11/2016	17:29:07	263	TrialQuartaParte	talker	claf	2	488	1
20	25	Male	Right	B	16/11/2016	17:29:07	264	TrialQuartaParte	frosty	sign	0	621	2
20	25	Male	Right	B	16/11/2016	17:29:07	265	TrialQuartaParte	keeper	gala	0	515	1
20	25	Male	Right	B	16/11/2016	17:29:07	266	TrialQuartaParte	floater	float	1	448	2
20	25	Male	Right	B	16/11/2016	17:29:07	267	TrialQuartaParte	drunkard	drunk	1	439	2
20	25	Male	Right	B	16/11/2016	17:29:07	268	TrialQuartaParte	asterix	cret	2	809	1
20	25	Male	Right	B	16/11/2016	17:29:07	269	TrialQuartaParte	gastric	waser	2	512	1
20	25	Male	Right	B	16/11/2016	17:29:07	270	TrialQuartaParte	fatal	fids	2	593	1
20	25	Male	Right	B	16/11/2016	17:29:07	271	TrialQuartaParte	turmoil	furm	2	503	1
20	25	Male	Right	B	16/11/2016	17:29:07	272	TrialQuartaParte	sandy	iron	0	502	2
20	25	Male	Right	B	16/11/2016	17:29:07	273	TrialQuartaParte	traffic	trepy	2	506	1
20	25	Male	Right	B	16/11/2016	17:29:07	274	TrialQuartaParte	firmly	heave	0	585	2
20	25	Male	Right	B	16/11/2016	17:29:07	275	TrialQuartaParte	fleeting	fleet	1	456	2
20	25	Male	Right	B	16/11/2016	17:29:07	276	TrialQuartaParte	phoenix	blont	2	684	1
20	25	Male	Right	B	16/11/2016	17:29:07	277	TrialQuartaParte	arsenal	arse	1	632	2
20	25	Male	Right	B	16/11/2016	17:29:07	278	TrialQuartaParte	against	again	1	452	2
20	25	Male	Right	B	16/11/2016	17:29:07	279	TrialQuartaParte	muffin	mufir	2	453	1
20	25	Male	Right	B	16/11/2016	17:29:07	280	TrialQuartaParte	routeing	tomed	2	549	1
20	25	Male	Right	B	16/11/2016	17:29:07	281	TrialQuartaParte	airtight	aith	2	524	1
20	25	Male	Right	B	16/11/2016	17:29:07	282	TrialQuartaParte	dysentery	ranin	2	515	1
20	25	Male	Right	B	16/11/2016	17:29:07	283	TrialQuartaParte	adviser	flick	0	744	2
20	25	Male	Right	B	16/11/2016	17:29:07	284	TrialQuartaParte	armoury	arwor	2	494	1
20	25	Male	Right	B	16/11/2016	17:29:07	285	TrialQuartaParte	ninety	scrap	0	633	2
20	25	Male	Right	B	16/11/2016	17:29:07	286	TrialQuartaParte	fanatic	fanty	2	591	1
20	25	Male	Right	B	16/11/2016	17:29:07	287	TrialQuartaParte	government	govern	1	469	2
20	25	Male	Right	B	16/11/2016	17:29:07	288	TrialQuartaParte	splinter	splint	1	487	2
20	25	Male	Right	B	16/11/2016	17:29:07	289	TrialQuartaParte	discern	disc	1	548	2
20	25	Male	Right	B	16/11/2016	17:29:07	290	TrialQuartaParte	highlight	gylpo	2	772	1
20	25	Male	Right	B	16/11/2016	17:29:07	291	TrialQuartaParte	geisha	crove	2	516	1
20	25	Male	Right	B	16/11/2016	17:29:07	292	TrialQuartaParte	editor	plan	0	464	2
20	25	Male	Right	B	16/11/2016	17:29:07	293	TrialQuartaParte	tackler	lerf	2	427	1
20	25	Male	Right	B	16/11/2016	17:29:07	294	TrialQuartaParte	safely	brand	0	680	1
20	25	Male	Right	B	16/11/2016	17:29:07	295	TrialQuartaParte	revolutionise	sivert	2	543	1
20	25	Male	Right	B	16/11/2016	17:29:07	296	TrialQuartaParte	happy	sigh	0	613	2
20	25	Male	Right	B	16/11/2016	17:29:07	297	TrialQuartaParte	stampede	stamp	1	466	2
20	25	Male	Right	B	16/11/2016	17:29:07	298	TrialQuartaParte	biscuit	bist	2	703	1
20	25	Male	Right	B	16/11/2016	17:29:07	299	TrialQuartaParte	thinly	golf	0	465	2
20	25	Male	Right	B	16/11/2016	17:29:07	300	TrialQuartaParte	infantry	infant	1	525	2
