Subject	Age	Gender	Handedness	Rotation	Data	OraStart	TrialCount	TrialType	Prime	Target	Relatedness	rt	Resp
47	22	Female	Right	A	08/09/2017	11:37:55	1	Prova	wellness	WELL	4	1324	2
47	22	Female	Right	A	08/09/2017	11:37:55	2	Prova	homeless	HOME	4	479	2
47	22	Female	Right	A	08/09/2017	11:37:55	3	Prova	tricky	TRICKER	4	898	1
47	22	Female	Right	A	08/09/2017	11:37:55	4	Prova	character	CHAR	4	780	1
47	22	Female	Right	A	08/09/2017	11:37:55	5	Prova	translater	PULTER	4	629	1
47	22	Female	Right	A	08/09/2017	11:37:55	6	Prova2	escape	EXAT	4	922	1
47	22	Female	Right	A	08/09/2017	11:37:55	7	Prova2	investigator	INVEST	4	690	2
47	22	Female	Right	A	08/09/2017	11:37:55	8	Prova2	examiner	EXAM	4	585	2
47	22	Female	Right	A	08/09/2017	11:37:55	9	Prova2	topic	TOP	4	558	2
47	22	Female	Right	A	08/09/2017	11:37:55	1	Warmup	unpack	PACK	5	682	2
47	22	Female	Right	A	08/09/2017	11:37:55	2	Warmup	tartare	TARIFF	5	656	1
47	22	Female	Right	A	08/09/2017	11:37:55	3	Warmup	cowrie	STURMS	5	597	1
47	22	Female	Right	A	08/09/2017	11:37:55	4	Warmup	cortex	NEWBIE	5	681	1
47	22	Female	Right	A	08/09/2017	11:37:55	5	Warmup	pullma	PULM	5	712	1
47	22	Female	Right	A	08/09/2017	11:37:55	1	TrialPrimaParte	edible	ESIGH	2	674	1
47	22	Female	Right	A	08/09/2017	11:37:55	2	TrialPrimaParte	geisha	CROVE	2	1019	1
47	22	Female	Right	A	08/09/2017	11:37:55	3	TrialPrimaParte	unspoilt	NALKY	2	1182	1
47	22	Female	Right	A	08/09/2017	11:37:55	4	TrialPrimaParte	service	COUNT	0	850	2
47	22	Female	Right	A	08/09/2017	11:37:55	5	TrialPrimaParte	gaiety	HARSE	2	743	2
47	22	Female	Right	A	08/09/2017	11:37:55	6	TrialPrimaParte	swivel	QUAT	2	1548	1
47	22	Female	Right	A	08/09/2017	11:37:55	7	TrialPrimaParte	wearily	DIET	0	628	2
47	22	Female	Right	A	08/09/2017	11:37:55	8	TrialPrimaParte	filthy	FILTH	1	719	1
47	22	Female	Right	A	08/09/2017	11:37:55	9	TrialPrimaParte	existent	GRUEL	0	808	2
47	22	Female	Right	A	08/09/2017	11:37:55	10	TrialPrimaParte	twitch	TWIT	1	572	2
47	22	Female	Right	A	08/09/2017	11:37:55	11	TrialPrimaParte	abstain	ABTER	2	854	2
47	22	Female	Right	A	08/09/2017	11:37:55	12	TrialPrimaParte	early	EARL	1	998	2
47	22	Female	Right	A	08/09/2017	11:37:55	13	TrialPrimaParte	forceps	FORCE	1	622	2
47	22	Female	Right	A	08/09/2017	11:37:55	14	TrialPrimaParte	veteran	VENIC	2	872	1
47	22	Female	Right	A	08/09/2017	11:37:55	15	TrialPrimaParte	gastric	WASER	2	830	1
47	22	Female	Right	A	08/09/2017	11:37:55	16	TrialPrimaParte	original	ORIVE	2	805	1
47	22	Female	Right	A	08/09/2017	11:37:55	17	TrialPrimaParte	decision	POSIG	2	710	1
47	22	Female	Right	A	08/09/2017	11:37:55	18	TrialPrimaParte	inherent	INPOCK	2	1417	1
47	22	Female	Right	A	08/09/2017	11:37:55	19	TrialPrimaParte	situation	GOVERN	0	664	2
47	22	Female	Right	A	08/09/2017	11:37:55	20	TrialPrimaParte	bubble	GLEF	2	695	1
47	22	Female	Right	A	08/09/2017	11:37:55	21	TrialPrimaParte	reliable	BLIDAR	2	639	1
47	22	Female	Right	A	08/09/2017	11:37:55	22	TrialPrimaParte	cranky	CRONY	2	637	1
47	22	Female	Right	A	08/09/2017	11:37:55	23	TrialPrimaParte	scrooge	PLICH	2	666	1
47	22	Female	Right	A	08/09/2017	11:37:55	24	TrialPrimaParte	fatal	FIDS	2	566	1
47	22	Female	Right	A	08/09/2017	11:37:55	25	TrialPrimaParte	organic	ORGAN	1	808	1
47	22	Female	Right	A	08/09/2017	11:37:55	26	TrialPrimaParte	anxiously	LEGEND	0	943	2
47	22	Female	Right	A	08/09/2017	11:37:55	27	TrialPrimaParte	suburban	ELECT	0	733	2
47	22	Female	Right	A	08/09/2017	11:37:55	28	TrialPrimaParte	public	PUB	1	524	2
47	22	Female	Right	A	08/09/2017	11:37:55	29	TrialPrimaParte	message	ROSTY	2	758	1
47	22	Female	Right	A	08/09/2017	11:37:55	30	TrialPrimaParte	irony	IRON	1	561	2
47	22	Female	Right	A	08/09/2017	11:37:55	31	TrialPrimaParte	crush	BEMP	2	654	1
47	22	Female	Right	A	08/09/2017	11:37:55	32	TrialPrimaParte	watcher	ANGEL	0	588	2
47	22	Female	Right	A	08/09/2017	11:37:55	33	TrialPrimaParte	planet	PLAN	1	414	2
47	22	Female	Right	A	08/09/2017	11:37:55	34	TrialPrimaParte	soften	SOFT	1	518	2
47	22	Female	Right	A	08/09/2017	11:37:55	35	TrialPrimaParte	grouse	GRUF	2	662	1
47	22	Female	Right	A	08/09/2017	11:37:55	36	TrialPrimaParte	turmoil	FURM	2	709	1
47	22	Female	Right	A	08/09/2017	11:37:55	37	TrialPrimaParte	snobbery	SNOTTY	2	946	1
47	22	Female	Right	A	08/09/2017	11:37:55	38	TrialPrimaParte	united	UNIT	1	484	2
47	22	Female	Right	A	08/09/2017	11:37:55	39	TrialPrimaParte	rumbling	ETHER	0	721	2
47	22	Female	Right	A	08/09/2017	11:37:55	40	TrialPrimaParte	helmet	HELM	1	606	2
47	22	Female	Right	A	08/09/2017	11:37:55	41	TrialPrimaParte	lively	LICEY	2	614	1
47	22	Female	Right	A	08/09/2017	11:37:55	42	TrialPrimaParte	booklet	TEXT	0	628	2
47	22	Female	Right	A	08/09/2017	11:37:55	43	TrialPrimaParte	category	CAGRE	2	691	1
47	22	Female	Right	A	08/09/2017	11:37:55	44	TrialPrimaParte	highlight	GYLPO	2	492	1
47	22	Female	Right	A	08/09/2017	11:37:55	45	TrialPrimaParte	sleet	SLIT	2	690	2
47	22	Female	Right	A	08/09/2017	11:37:55	46	TrialPrimaParte	plucky	PLUCK	1	559	2
47	22	Female	Right	A	08/09/2017	11:37:55	47	TrialPrimaParte	armoury	ARWOR	2	932	1
47	22	Female	Right	A	08/09/2017	11:37:55	48	TrialPrimaParte	kinetic	KINSE	2	664	2
47	22	Female	Right	A	08/09/2017	11:37:55	49	TrialPrimaParte	timidly	ARSE	0	628	2
47	22	Female	Right	A	08/09/2017	11:37:55	50	TrialPrimaParte	education	EDUCON	2	847	1
47	22	Female	Right	A	08/09/2017	11:37:55	51	TrialPrimaParte	centimetres	CENSAR	2	720	1
47	22	Female	Right	A	08/09/2017	11:37:55	52	TrialPrimaParte	galaxy	GALA	1	1024	1
47	22	Female	Right	A	08/09/2017	11:37:55	53	TrialPrimaParte	ample	AMP	1	528	1
47	22	Female	Right	A	08/09/2017	11:37:55	54	TrialPrimaParte	crikey	BRIZE	2	778	2
47	22	Female	Right	A	08/09/2017	11:37:55	55	TrialPrimaParte	viewer	VIEW	1	925	2
47	22	Female	Right	A	08/09/2017	11:37:55	56	TrialPrimaParte	freeze	FREE	1	617	2
47	22	Female	Right	A	08/09/2017	11:37:55	57	TrialPrimaParte	heaven	HEAVE	1	787	1
47	22	Female	Right	A	08/09/2017	11:37:55	58	TrialPrimaParte	plastic	SPAXE	2	623	1
47	22	Female	Right	A	08/09/2017	11:37:55	59	TrialPrimaParte	widowed	WIDOW	1	602	2
47	22	Female	Right	A	08/09/2017	11:37:55	60	TrialPrimaParte	maximum	SUYTE	2	628	1
47	22	Female	Right	A	08/09/2017	11:37:55	61	TrialPrimaParte	crafty	CRAFT	1	658	2
47	22	Female	Right	A	08/09/2017	11:37:55	62	TrialPrimaParte	risky	RISK	1	573	2
47	22	Female	Right	A	08/09/2017	11:37:55	63	TrialPrimaParte	snobby	SNOOL	2	700	1
47	22	Female	Right	A	08/09/2017	11:37:55	64	TrialPrimaParte	palpably	AMEN	0	561	2
47	22	Female	Right	A	08/09/2017	11:37:55	65	TrialPrimaParte	equally	COMMA	0	834	1
47	22	Female	Right	A	08/09/2017	11:37:55	66	TrialPrimaParte	legacy	LECY	2	778	1
47	22	Female	Right	A	08/09/2017	11:37:55	67	TrialPrimaParte	portal	BALP	2	653	1
47	22	Female	Right	A	08/09/2017	11:37:55	68	TrialPrimaParte	trumpet	TRUMP	1	940	2
47	22	Female	Right	A	08/09/2017	11:37:55	69	TrialPrimaParte	rabbit	RABBI	1	691	1
47	22	Female	Right	A	08/09/2017	11:37:55	70	TrialPrimaParte	upstart	PUMY	2	526	1
47	22	Female	Right	A	08/09/2017	11:37:55	71	TrialPrimaParte	culprit	CUTI	2	541	1
47	22	Female	Right	A	08/09/2017	11:37:55	72	TrialPrimaParte	snobbish	GREEN	0	585	2
47	22	Female	Right	A	08/09/2017	11:37:55	73	TrialPrimaParte	quartz	QUART	1	642	2
47	22	Female	Right	A	08/09/2017	11:37:55	74	TrialPrimaParte	brandy	BRAND	1	613	2
47	22	Female	Right	A	08/09/2017	11:37:55	75	TrialPrimaParte	pummel	SYLY	2	565	1
47	22	Female	Right	A	08/09/2017	11:37:55	76	TrialSecondaParte	swotting	CHULY	2	632	1
47	22	Female	Right	A	08/09/2017	11:37:55	77	TrialSecondaParte	foetal	FONGS	2	626	1
47	22	Female	Right	A	08/09/2017	11:37:55	78	TrialSecondaParte	bulbous	BULB	1	696	1
47	22	Female	Right	A	08/09/2017	11:37:55	79	TrialSecondaParte	religious	SISBY	2	651	1
47	22	Female	Right	A	08/09/2017	11:37:55	80	TrialSecondaParte	vigilant	VIGAN	2	869	1
47	22	Female	Right	A	08/09/2017	11:37:55	81	TrialSecondaParte	fibrosis	SHUAR	2	533	1
47	22	Female	Right	A	08/09/2017	11:37:55	82	TrialSecondaParte	vivacious	VICIS	2	620	1
47	22	Female	Right	A	08/09/2017	11:37:55	83	TrialSecondaParte	faceless	FACMOD	2	664	1
47	22	Female	Right	A	08/09/2017	11:37:55	84	TrialSecondaParte	prosecution	LELER	2	578	1
47	22	Female	Right	A	08/09/2017	11:37:55	85	TrialSecondaParte	blush	BLIF	2	564	1
47	22	Female	Right	A	08/09/2017	11:37:55	86	TrialSecondaParte	simplify	FLEET	0	882	2
47	22	Female	Right	A	08/09/2017	11:37:55	87	TrialSecondaParte	revolutionary	INTERN	0	734	2
47	22	Female	Right	A	08/09/2017	11:37:55	88	TrialSecondaParte	maternal	MALERN	2	802	1
47	22	Female	Right	A	08/09/2017	11:37:55	89	TrialSecondaParte	postage	POTH	2	1490	2
47	22	Female	Right	A	08/09/2017	11:37:55	90	TrialSecondaParte	shovel	SHOVE	1	982	2
47	22	Female	Right	A	08/09/2017	11:37:55	91	TrialSecondaParte	number	NUMB	1	745	2
47	22	Female	Right	A	08/09/2017	11:37:55	92	TrialSecondaParte	anaesthetic	INVEST	0	743	2
47	22	Female	Right	A	08/09/2017	11:37:55	93	TrialSecondaParte	bomber	BOMB	1	695	2
47	22	Female	Right	A	08/09/2017	11:37:55	94	TrialSecondaParte	novelty	SURGE	0	542	2
47	22	Female	Right	A	08/09/2017	11:37:55	95	TrialSecondaParte	absurdity	PLAIN	0	540	2
47	22	Female	Right	A	08/09/2017	11:37:55	96	TrialSecondaParte	crummy	MEYE	2	749	1
47	22	Female	Right	A	08/09/2017	11:37:55	97	TrialSecondaParte	friar	BLYR	2	640	1
47	22	Female	Right	A	08/09/2017	11:37:55	98	TrialSecondaParte	mimicry	QUIET	0	625	2
47	22	Female	Right	A	08/09/2017	11:37:55	99	TrialSecondaParte	illicit	ILKIS	2	643	1
47	22	Female	Right	A	08/09/2017	11:37:55	100	TrialSecondaParte	summit	SUTTY	2	774	2
47	22	Female	Right	A	08/09/2017	11:37:55	101	TrialSecondaParte	tract	TREP	2	925	1
47	22	Female	Right	A	08/09/2017	11:37:55	102	TrialSecondaParte	sudden	VERTY	2	1078	1
47	22	Female	Right	A	08/09/2017	11:37:55	103	TrialSecondaParte	exemption	RENEW	0	721	1
47	22	Female	Right	A	08/09/2017	11:37:55	104	TrialSecondaParte	calmness	ARTIST	0	639	2
47	22	Female	Right	A	08/09/2017	11:37:55	105	TrialSecondaParte	foundry	BRISK	0	815	2
47	22	Female	Right	A	08/09/2017	11:37:55	106	TrialSecondaParte	stroke	CLIGH	2	565	1
47	22	Female	Right	A	08/09/2017	11:37:55	107	TrialSecondaParte	enactment	CLOUD	0	539	2
47	22	Female	Right	A	08/09/2017	11:37:55	108	TrialSecondaParte	rebound	COUS	2	636	1
47	22	Female	Right	A	08/09/2017	11:37:55	109	TrialSecondaParte	gloomy	GLOOM	1	673	2
47	22	Female	Right	A	08/09/2017	11:37:55	110	TrialSecondaParte	merrier	MERKS	2	754	1
47	22	Female	Right	A	08/09/2017	11:37:55	111	TrialSecondaParte	dusty	DUSY	2	943	1
47	22	Female	Right	A	08/09/2017	11:37:55	112	TrialSecondaParte	ribbon	RIBED	2	1310	1
47	22	Female	Right	A	08/09/2017	11:37:55	113	TrialSecondaParte	supplant	PLOSY	2	580	1
47	22	Female	Right	A	08/09/2017	11:37:55	114	TrialSecondaParte	neutron	WHESE	2	867	1
47	22	Female	Right	A	08/09/2017	11:37:55	115	TrialSecondaParte	mosaic	MIP	2	520	1
47	22	Female	Right	A	08/09/2017	11:37:55	116	TrialSecondaParte	chilly	CHILL	1	653	2
47	22	Female	Right	A	08/09/2017	11:37:55	117	TrialSecondaParte	advisory	ADVOCK	2	618	1
47	22	Female	Right	A	08/09/2017	11:37:55	118	TrialSecondaParte	fixture	STRUL	2	603	1
47	22	Female	Right	A	08/09/2017	11:37:55	119	TrialSecondaParte	paternal	SITER	2	757	1
47	22	Female	Right	A	08/09/2017	11:37:55	120	TrialSecondaParte	yardage	YAGE	2	585	1
47	22	Female	Right	A	08/09/2017	11:37:55	121	TrialSecondaParte	genetic	GENTH	2	818	1
47	22	Female	Right	A	08/09/2017	11:37:55	122	TrialSecondaParte	grossly	VILLA	0	1256	1
47	22	Female	Right	A	08/09/2017	11:37:55	123	TrialSecondaParte	gluteal	ABTLE	2	685	1
47	22	Female	Right	A	08/09/2017	11:37:55	124	TrialSecondaParte	moisture	STUB	0	740	1
47	22	Female	Right	A	08/09/2017	11:37:55	125	TrialSecondaParte	vengeful	CHERB	2	981	1
47	22	Female	Right	A	08/09/2017	11:37:55	126	TrialSecondaParte	alcoholic	FRUIT	0	633	2
47	22	Female	Right	A	08/09/2017	11:37:55	127	TrialSecondaParte	obviously	SECRET	0	606	2
47	22	Female	Right	A	08/09/2017	11:37:55	128	TrialSecondaParte	bearded	BEARD	1	680	2
47	22	Female	Right	A	08/09/2017	11:37:55	129	TrialSecondaParte	nymphet	NYMPH	1	1220	2
47	22	Female	Right	A	08/09/2017	11:37:55	130	TrialSecondaParte	child	SILD	2	782	1
47	22	Female	Right	A	08/09/2017	11:37:55	131	TrialSecondaParte	clanger	SPANT	2	818	1
47	22	Female	Right	A	08/09/2017	11:37:55	132	TrialSecondaParte	killer	LALF	2	767	1
47	22	Female	Right	A	08/09/2017	11:37:55	133	TrialSecondaParte	fleshy	FLESH	1	547	2
47	22	Female	Right	A	08/09/2017	11:37:55	134	TrialSecondaParte	pulpit	PULP	1	673	2
47	22	Female	Right	A	08/09/2017	11:37:55	135	TrialSecondaParte	production	DEPART	0	561	2
47	22	Female	Right	A	08/09/2017	11:37:55	136	TrialSecondaParte	sniper	SNIP	1	930	2
47	22	Female	Right	A	08/09/2017	11:37:55	137	TrialSecondaParte	button	BUTT	1	726	2
47	22	Female	Right	A	08/09/2017	11:37:55	138	TrialSecondaParte	raffle	RAFEL	2	1116	1
47	22	Female	Right	A	08/09/2017	11:37:55	139	TrialSecondaParte	believer	APPEND	0	788	2
47	22	Female	Right	A	08/09/2017	11:37:55	140	TrialSecondaParte	dysentery	RANIN	2	1019	1
47	22	Female	Right	A	08/09/2017	11:37:55	141	TrialSecondaParte	starter	DISC	0	1304	1
47	22	Female	Right	A	08/09/2017	11:37:55	142	TrialSecondaParte	shunt	SHUN	1	1254	2
47	22	Female	Right	A	08/09/2017	11:37:55	143	TrialSecondaParte	trolley	TROLL	1	520	2
47	22	Female	Right	A	08/09/2017	11:37:55	144	TrialSecondaParte	extremism	LIQUID	0	610	2
47	22	Female	Right	A	08/09/2017	11:37:55	145	TrialSecondaParte	ability	COLON	0	1008	2
47	22	Female	Right	A	08/09/2017	11:37:55	146	TrialSecondaParte	distantly	FACET	0	821	1
47	22	Female	Right	A	08/09/2017	11:37:55	147	TrialSecondaParte	marshy	MARSH	1	1214	2
47	22	Female	Right	A	08/09/2017	11:37:55	148	TrialSecondaParte	nincompoops	NINPOO	2	956	1
47	22	Female	Right	A	08/09/2017	11:37:55	149	TrialSecondaParte	ceramic	CERBS	2	701	1
47	22	Female	Right	A	08/09/2017	11:37:55	150	TrialSecondaParte	plunder	ACRE	0	814	1
47	22	Female	Right	A	08/09/2017	11:37:55	151	TrialTerzaParte	itinerary	ITINER	2	748	2
47	22	Female	Right	A	08/09/2017	11:37:55	152	TrialTerzaParte	missive	FLOAT	0	712	2
47	22	Female	Right	A	08/09/2017	11:37:55	153	TrialTerzaParte	lectureship	PARENT	0	680	2
47	22	Female	Right	A	08/09/2017	11:37:55	154	TrialTerzaParte	pottage	POSCH	2	613	2
47	22	Female	Right	A	08/09/2017	11:37:55	155	TrialTerzaParte	struggled	NEIGH	0	944	2
47	22	Female	Right	A	08/09/2017	11:37:55	156	TrialTerzaParte	idealism	SPLINT	0	976	2
47	22	Female	Right	A	08/09/2017	11:37:55	157	TrialTerzaParte	unique	UNZED	2	717	1
47	22	Female	Right	A	08/09/2017	11:37:55	158	TrialTerzaParte	passant	PASKS	2	1582	1
47	22	Female	Right	A	08/09/2017	11:37:55	159	TrialTerzaParte	composer	ALARM	0	647	2
47	22	Female	Right	A	08/09/2017	11:37:55	160	TrialTerzaParte	revolutionise	SIVERT	2	616	1
47	22	Female	Right	A	08/09/2017	11:37:55	161	TrialTerzaParte	penguin	PHORB	2	1058	1
47	22	Female	Right	A	08/09/2017	11:37:55	162	TrialTerzaParte	broiler	PLUM	0	593	1
47	22	Female	Right	A	08/09/2017	11:37:55	163	TrialTerzaParte	loyally	BUZZ	0	744	2
47	22	Female	Right	A	08/09/2017	11:37:55	164	TrialTerzaParte	awaken	TOOD	2	1148	2
47	22	Female	Right	A	08/09/2017	11:37:55	165	TrialTerzaParte	developer	COURT	0	637	2
47	22	Female	Right	A	08/09/2017	11:37:55	166	TrialTerzaParte	jauntily	SCALD	0	898	1
47	22	Female	Right	A	08/09/2017	11:37:55	167	TrialTerzaParte	flicker	FLICK	1	567	2
47	22	Female	Right	A	08/09/2017	11:37:55	168	TrialTerzaParte	traffic	TREPY	2	937	1
47	22	Female	Right	A	08/09/2017	11:37:55	169	TrialTerzaParte	feathery	DRUNK	0	632	2
47	22	Female	Right	A	08/09/2017	11:37:55	170	TrialTerzaParte	engage	YURD	2	727	1
47	22	Female	Right	A	08/09/2017	11:37:55	171	TrialTerzaParte	toaster	TOAST	1	462	2
47	22	Female	Right	A	08/09/2017	11:37:55	172	TrialTerzaParte	bloody	BLOOD	1	502	2
47	22	Female	Right	A	08/09/2017	11:37:55	173	TrialTerzaParte	desert	DERT	2	1011	1
47	22	Female	Right	A	08/09/2017	11:37:55	174	TrialTerzaParte	linkage	FLION	2	690	1
47	22	Female	Right	A	08/09/2017	11:37:55	175	TrialTerzaParte	scanner	RAST	2	547	1
47	22	Female	Right	A	08/09/2017	11:37:55	176	TrialTerzaParte	addition	EMPLOY	0	725	2
47	22	Female	Right	A	08/09/2017	11:37:55	177	TrialTerzaParte	difference	DIFROL	2	629	1
47	22	Female	Right	A	08/09/2017	11:37:55	178	TrialTerzaParte	epileptic	CANDID	0	763	2
47	22	Female	Right	A	08/09/2017	11:37:55	179	TrialTerzaParte	farcical	FARXY	2	622	1
47	22	Female	Right	A	08/09/2017	11:37:55	180	TrialTerzaParte	friendly	NORTH	0	684	2
47	22	Female	Right	A	08/09/2017	11:37:55	181	TrialTerzaParte	analogy	ANOPY	2	813	1
47	22	Female	Right	A	08/09/2017	11:37:55	182	TrialTerzaParte	hatchery	FIGHY	2	1143	1
47	22	Female	Right	A	08/09/2017	11:37:55	183	TrialTerzaParte	utter	ULS	2	724	1
47	22	Female	Right	A	08/09/2017	11:37:55	184	TrialTerzaParte	voucher	BARON	0	877	2
47	22	Female	Right	A	08/09/2017	11:37:55	185	TrialTerzaParte	repertory	REPTY	2	845	2
47	22	Female	Right	A	08/09/2017	11:37:55	186	TrialTerzaParte	tactile	TACT	1	1049	1
47	22	Female	Right	A	08/09/2017	11:37:55	187	TrialTerzaParte	tributary	CALIN	2	621	1
47	22	Female	Right	A	08/09/2017	11:37:55	188	TrialTerzaParte	signet	SIGN	1	495	2
47	22	Female	Right	A	08/09/2017	11:37:55	189	TrialTerzaParte	squawk	SQUAW	1	659	1
47	22	Female	Right	A	08/09/2017	11:37:55	190	TrialTerzaParte	daring	DALIG	2	689	1
47	22	Female	Right	A	08/09/2017	11:37:55	191	TrialTerzaParte	classic	CLALS	2	662	1
47	22	Female	Right	A	08/09/2017	11:37:55	192	TrialTerzaParte	rancour	BRITS	2	601	1
47	22	Female	Right	A	08/09/2017	11:37:55	193	TrialTerzaParte	passel	TURP	2	583	1
47	22	Female	Right	A	08/09/2017	11:37:55	194	TrialTerzaParte	content	CONLY	2	603	1
47	22	Female	Right	A	08/09/2017	11:37:55	195	TrialTerzaParte	plush	PLUS	1	619	2
47	22	Female	Right	A	08/09/2017	11:37:55	196	TrialTerzaParte	manual	MALS	2	646	1
47	22	Female	Right	A	08/09/2017	11:37:55	197	TrialTerzaParte	fossilise	OXYGEN	0	684	2
47	22	Female	Right	A	08/09/2017	11:37:55	198	TrialTerzaParte	murderous	INVENT	0	765	2
47	22	Female	Right	A	08/09/2017	11:37:55	199	TrialTerzaParte	answer	ANWE	2	1303	1
47	22	Female	Right	A	08/09/2017	11:37:55	200	TrialTerzaParte	amateurish	INHIBIT	0	846	2
47	22	Female	Right	A	08/09/2017	11:37:55	201	TrialTerzaParte	fizzle	FIZZ	1	722	1
47	22	Female	Right	A	08/09/2017	11:37:55	202	TrialTerzaParte	trainee	TRAIN	1	581	2
47	22	Female	Right	A	08/09/2017	11:37:55	203	TrialTerzaParte	crooked	CROOK	1	922	1
47	22	Female	Right	A	08/09/2017	11:37:55	204	TrialTerzaParte	halogen	HALY	2	1102	2
47	22	Female	Right	A	08/09/2017	11:37:55	205	TrialTerzaParte	mourner	MOURN	1	842	1
47	22	Female	Right	A	08/09/2017	11:37:55	206	TrialTerzaParte	gaseous	STILT	0	1102	1
47	22	Female	Right	A	08/09/2017	11:37:55	207	TrialTerzaParte	abstract	FEWTU	2	845	1
47	22	Female	Right	A	08/09/2017	11:37:55	208	TrialTerzaParte	whisker	WHISK	1	712	2
47	22	Female	Right	A	08/09/2017	11:37:55	209	TrialTerzaParte	archer	ARCH	1	929	1
47	22	Female	Right	A	08/09/2017	11:37:55	210	TrialTerzaParte	physical	REACT	0	695	2
47	22	Female	Right	A	08/09/2017	11:37:55	211	TrialTerzaParte	syphilis	RUAR	2	610	1
47	22	Female	Right	A	08/09/2017	11:37:55	212	TrialTerzaParte	medical	SURF	0	658	1
47	22	Female	Right	A	08/09/2017	11:37:55	213	TrialTerzaParte	stunt	STUN	1	847	1
47	22	Female	Right	A	08/09/2017	11:37:55	214	TrialTerzaParte	tufted	TUFT	1	783	1
47	22	Female	Right	A	08/09/2017	11:37:55	215	TrialTerzaParte	jetty	KUTY	2	750	1
47	22	Female	Right	A	08/09/2017	11:37:55	216	TrialTerzaParte	skylight	SKIGH	2	827	1
47	22	Female	Right	A	08/09/2017	11:37:55	217	TrialTerzaParte	weird	WEIR	1	1489	1
47	22	Female	Right	A	08/09/2017	11:37:55	218	TrialTerzaParte	sovereign	SOVIGN	2	1099	1
47	22	Female	Right	A	08/09/2017	11:37:55	219	TrialTerzaParte	jerkin	JERK	1	872	2
47	22	Female	Right	A	08/09/2017	11:37:55	220	TrialTerzaParte	twinkle	TWIN	1	630	2
47	22	Female	Right	A	08/09/2017	11:37:55	221	TrialTerzaParte	coaster	COAST	1	529	2
47	22	Female	Right	A	08/09/2017	11:37:55	222	TrialTerzaParte	fabulous	SMAPLY	2	600	1
47	22	Female	Right	A	08/09/2017	11:37:55	223	TrialTerzaParte	criminal	HUARE	2	603	1
47	22	Female	Right	A	08/09/2017	11:37:55	224	TrialTerzaParte	plonking	PLUNY	2	652	1
47	22	Female	Right	A	08/09/2017	11:37:55	225	TrialTerzaParte	tendency	CRITIC	0	781	2
47	22	Female	Right	A	08/09/2017	11:37:55	226	TrialQuartaParte	opposition	NUNFY	2	671	1
47	22	Female	Right	A	08/09/2017	11:37:55	227	TrialQuartaParte	poetry	POET	1	591	2
47	22	Female	Right	A	08/09/2017	11:37:55	228	TrialQuartaParte	gravel	FLIXY	2	678	1
47	22	Female	Right	A	08/09/2017	11:37:55	229	TrialQuartaParte	actually	QUEST	0	683	2
47	22	Female	Right	A	08/09/2017	11:37:55	230	TrialQuartaParte	hearty	HEART	1	554	2
47	22	Female	Right	A	08/09/2017	11:37:55	231	TrialQuartaParte	scrape	SCRAP	1	1121	1
47	22	Female	Right	A	08/09/2017	11:37:55	232	TrialQuartaParte	acidic	ACID	1	686	2
47	22	Female	Right	A	08/09/2017	11:37:55	233	TrialQuartaParte	defector	STAMP	0	637	2
47	22	Female	Right	A	08/09/2017	11:37:55	234	TrialQuartaParte	equipment	AGREE	0	638	2
47	22	Female	Right	A	08/09/2017	11:37:55	235	TrialQuartaParte	trashy	RELL	2	809	1
47	22	Female	Right	A	08/09/2017	11:37:55	236	TrialQuartaParte	narrowly	SCULL	0	660	1
47	22	Female	Right	A	08/09/2017	11:37:55	237	TrialQuartaParte	sight	SIGH	1	523	2
47	22	Female	Right	A	08/09/2017	11:37:55	238	TrialQuartaParte	smelly	THULY	2	931	1
47	22	Female	Right	A	08/09/2017	11:37:55	239	TrialQuartaParte	smuggle	SMUG	1	870	1
47	22	Female	Right	A	08/09/2017	11:37:55	240	TrialQuartaParte	vicarage	ERUPT	0	885	2
47	22	Female	Right	A	08/09/2017	11:37:55	241	TrialQuartaParte	routeing	TOMED	2	1093	1
47	22	Female	Right	A	08/09/2017	11:37:55	242	TrialQuartaParte	signal	QUIR	2	670	1
47	22	Female	Right	A	08/09/2017	11:37:55	243	TrialQuartaParte	boarder	BOARD	1	994	2
47	22	Female	Right	A	08/09/2017	11:37:55	244	TrialQuartaParte	justify	EXTRA	0	523	2
47	22	Female	Right	A	08/09/2017	11:37:55	245	TrialQuartaParte	dweller	CRYPT	0	749	1
47	22	Female	Right	A	08/09/2017	11:37:55	246	TrialQuartaParte	golfer	GOLF	1	541	2
47	22	Female	Right	A	08/09/2017	11:37:55	247	TrialQuartaParte	glade	GLAD	1	633	2
47	22	Female	Right	A	08/09/2017	11:37:55	248	TrialQuartaParte	guilty	GUILT	1	492	2
47	22	Female	Right	A	08/09/2017	11:37:55	249	TrialQuartaParte	fanatic	FANTY	2	811	1
47	22	Female	Right	A	08/09/2017	11:37:55	250	TrialQuartaParte	haulier	HALFE	2	871	1
47	22	Female	Right	A	08/09/2017	11:37:55	251	TrialQuartaParte	phoenix	BLONT	2	799	1
47	22	Female	Right	A	08/09/2017	11:37:55	252	TrialQuartaParte	treaty	TREAT	1	613	2
47	22	Female	Right	A	08/09/2017	11:37:55	253	TrialQuartaParte	putty	PUTT	1	845	1
47	22	Female	Right	A	08/09/2017	11:37:55	254	TrialQuartaParte	selfless	AUDIT	0	757	2
47	22	Female	Right	A	08/09/2017	11:37:55	255	TrialQuartaParte	dragon	DRON	2	740	1
47	22	Female	Right	A	08/09/2017	11:37:55	256	TrialQuartaParte	citation	FUSE	0	655	1
47	22	Female	Right	A	08/09/2017	11:37:55	257	TrialQuartaParte	adopted	ADOPT	1	571	2
47	22	Female	Right	A	08/09/2017	11:37:55	258	TrialQuartaParte	benignly	BASIL	0	998	1
47	22	Female	Right	A	08/09/2017	11:37:55	259	TrialQuartaParte	polite	TIND	2	572	1
47	22	Female	Right	A	08/09/2017	11:37:55	260	TrialQuartaParte	scruffy	THICK	0	956	1
47	22	Female	Right	A	08/09/2017	11:37:55	261	TrialQuartaParte	power	MORD	2	701	1
47	22	Female	Right	A	08/09/2017	11:37:55	262	TrialQuartaParte	deficit	DETY	2	588	1
47	22	Female	Right	A	08/09/2017	11:37:55	263	TrialQuartaParte	vertical	VERKS	2	664	1
47	22	Female	Right	A	08/09/2017	11:37:55	264	TrialQuartaParte	moulder	MOURE	2	906	1
47	22	Female	Right	A	08/09/2017	11:37:55	265	TrialQuartaParte	griffin	SPOFF	2	631	1
47	22	Female	Right	A	08/09/2017	11:37:55	266	TrialQuartaParte	graphic	BLAMP	2	766	1
47	22	Female	Right	A	08/09/2017	11:37:55	267	TrialQuartaParte	validity	INFANT	0	902	2
47	22	Female	Right	A	08/09/2017	11:37:55	268	TrialQuartaParte	monastery	FAGOR	2	917	1
47	22	Female	Right	A	08/09/2017	11:37:55	269	TrialQuartaParte	stirrup	STIR	1	722	1
47	22	Female	Right	A	08/09/2017	11:37:55	270	TrialQuartaParte	masonry	DREAM	0	612	2
47	22	Female	Right	A	08/09/2017	11:37:55	271	TrialQuartaParte	damsel	DALP	2	714	1
47	22	Female	Right	A	08/09/2017	11:37:55	272	TrialQuartaParte	creamy	CREAM	1	544	2
47	22	Female	Right	A	08/09/2017	11:37:55	273	TrialQuartaParte	perhaps	AGAIN	0	591	2
47	22	Female	Right	A	08/09/2017	11:37:55	274	TrialQuartaParte	asterix	CRET	2	662	1
47	22	Female	Right	A	08/09/2017	11:37:55	275	TrialQuartaParte	absence	AGSEL	2	641	1
47	22	Female	Right	A	08/09/2017	11:37:55	276	TrialQuartaParte	ambush	AMSHY	2	832	1
47	22	Female	Right	A	08/09/2017	11:37:55	277	TrialQuartaParte	talker	CLAF	2	705	1
47	22	Female	Right	A	08/09/2017	11:37:55	278	TrialQuartaParte	tamponade	RUFFY	2	993	2
47	22	Female	Right	A	08/09/2017	11:37:55	279	TrialQuartaParte	tackler	LERF	2	738	1
47	22	Female	Right	A	08/09/2017	11:37:55	280	TrialQuartaParte	sufferer	GLOSS	0	559	2
47	22	Female	Right	A	08/09/2017	11:37:55	281	TrialQuartaParte	steadily	RATION	0	561	1
47	22	Female	Right	A	08/09/2017	11:37:55	282	TrialQuartaParte	piratical	PIRENT	2	648	1
47	22	Female	Right	A	08/09/2017	11:37:55	283	TrialQuartaParte	airtight	AITH	2	565	1
47	22	Female	Right	A	08/09/2017	11:37:55	284	TrialQuartaParte	fisher	FIMS	2	708	1
47	22	Female	Right	A	08/09/2017	11:37:55	285	TrialQuartaParte	stressful	ABGAID	2	637	1
47	22	Female	Right	A	08/09/2017	11:37:55	286	TrialQuartaParte	muffin	MUFIR	2	484	1
47	22	Female	Right	A	08/09/2017	11:37:55	287	TrialQuartaParte	cousin	COUL	2	480	1
47	22	Female	Right	A	08/09/2017	11:37:55	288	TrialQuartaParte	gluten	GLUT	1	561	1
47	22	Female	Right	A	08/09/2017	11:37:55	289	TrialQuartaParte	warfare	BROTH	0	455	1
47	22	Female	Right	A	08/09/2017	11:37:55	290	TrialQuartaParte	sensuous	SECLY	2	477	1
47	22	Female	Right	A	08/09/2017	11:37:55	291	TrialQuartaParte	biscuit	BIST	2	498	1
47	22	Female	Right	A	08/09/2017	11:37:55	292	TrialQuartaParte	lethal	LERD	2	655	1
47	22	Female	Right	A	08/09/2017	11:37:55	293	TrialQuartaParte	hydration	POVIC	2	502	1
47	22	Female	Right	A	08/09/2017	11:37:55	294	TrialQuartaParte	finally	TEACH	0	643	2
47	22	Female	Right	A	08/09/2017	11:37:55	295	TrialQuartaParte	olympic	OLICK	2	697	1
47	22	Female	Right	A	08/09/2017	11:37:55	296	TrialQuartaParte	bourbon	BOUN	2	660	1
47	22	Female	Right	A	08/09/2017	11:37:55	297	TrialQuartaParte	instruction	DEMON	0	827	2
47	22	Female	Right	A	08/09/2017	11:37:55	298	TrialQuartaParte	dialog	DIAL	1	808	2
47	22	Female	Right	A	08/09/2017	11:37:55	299	TrialQuartaParte	socialiser	FLEPITY	2	672	1
47	22	Female	Right	A	08/09/2017	11:37:55	300	TrialQuartaParte	dreadful	PHONE	0	511	2
