Subject	Age	Gender	Handedness	Rotation	Data	OraStart	TrialCount	TrialType	Prime	Target	Relatedness	rt	Resp
17	20	Female	Right	A	15/11/2016	13:22:02	1	Prova	wellness	well	4	75228	2
17	20	Female	Right	A	15/11/2016	13:22:02	2	Prova	homeless	home	4	502	2
17	20	Female	Right	A	15/11/2016	13:22:02	3	Prova	tricky	tricker	4	817	1
17	20	Female	Right	A	15/11/2016	13:22:02	4	Prova	character	char	4	711	1
17	20	Female	Right	A	15/11/2016	13:22:02	5	Prova	translater	pulter	4	554	1
17	20	Female	Right	A	15/11/2016	13:22:02	6	Prova2	escape	exat	4	831	1
17	20	Female	Right	A	15/11/2016	13:22:02	7	Prova2	investigator	invest	4	621	2
17	20	Female	Right	A	15/11/2016	13:22:02	8	Prova2	examiner	exam	4	651	2
17	20	Female	Right	A	15/11/2016	13:22:02	9	Prova2	topic	top	4	564	2
17	20	Female	Right	A	15/11/2016	13:22:02	1	Warmup	unpack	pack	5	635	2
17	20	Female	Right	A	15/11/2016	13:22:02	2	Warmup	tartare	tariff	5	660	1
17	20	Female	Right	A	15/11/2016	13:22:02	3	Warmup	cowrie	sturms	5	687	1
17	20	Female	Right	A	15/11/2016	13:22:02	4	Warmup	cortex	newbie	5	614	1
17	20	Female	Right	A	15/11/2016	13:22:02	5	Warmup	pullma	pulm	5	1166	1
17	20	Female	Right	A	15/11/2016	13:22:02	1	TrialPrimaParte	mosaic	mip	2	818	1
17	20	Female	Right	A	15/11/2016	13:22:02	2	TrialPrimaParte	grossly	villa	0	977	1
17	20	Female	Right	A	15/11/2016	13:22:02	3	TrialPrimaParte	gluten	glut	1	782	1
17	20	Female	Right	A	15/11/2016	13:22:02	4	TrialPrimaParte	highlight	gylpo	2	604	1
17	20	Female	Right	A	15/11/2016	13:22:02	5	TrialPrimaParte	dragon	dron	2	592	1
17	20	Female	Right	A	15/11/2016	13:22:02	6	TrialPrimaParte	vigilant	vigan	2	1309	1
17	20	Female	Right	A	15/11/2016	13:22:02	7	TrialPrimaParte	moisture	stub	0	593	1
17	20	Female	Right	A	15/11/2016	13:22:02	8	TrialPrimaParte	olympic	olick	2	817	1
17	20	Female	Right	A	15/11/2016	13:22:02	9	TrialPrimaParte	plastic	spaxe	2	610	1
17	20	Female	Right	A	15/11/2016	13:22:02	10	TrialPrimaParte	organic	organ	1	679	2
17	20	Female	Right	A	15/11/2016	13:22:02	11	TrialPrimaParte	galaxy	gala	1	709	1
17	20	Female	Right	A	15/11/2016	13:22:02	12	TrialPrimaParte	religious	sisby	2	773	1
17	20	Female	Right	A	15/11/2016	13:22:02	13	TrialPrimaParte	equipment	agree	0	700	2
17	20	Female	Right	A	15/11/2016	13:22:02	14	TrialPrimaParte	monastery	fagor	2	748	1
17	20	Female	Right	A	15/11/2016	13:22:02	15	TrialPrimaParte	friendly	north	0	660	2
17	20	Female	Right	A	15/11/2016	13:22:02	16	TrialPrimaParte	clanger	spant	2	1139	2
17	20	Female	Right	A	15/11/2016	13:22:02	17	TrialPrimaParte	tract	trep	2	723	1
17	20	Female	Right	A	15/11/2016	13:22:02	18	TrialPrimaParte	daring	dalig	2	785	1
17	20	Female	Right	A	15/11/2016	13:22:02	19	TrialPrimaParte	genetic	genth	2	719	1
17	20	Female	Right	A	15/11/2016	13:22:02	20	TrialPrimaParte	unspoilt	nalky	2	983	2
17	20	Female	Right	A	15/11/2016	13:22:02	21	TrialPrimaParte	traffic	trepy	2	599	1
17	20	Female	Right	A	15/11/2016	13:22:02	22	TrialPrimaParte	obviously	secret	0	575	2
17	20	Female	Right	A	15/11/2016	13:22:02	23	TrialPrimaParte	cousin	coul	2	1193	1
17	20	Female	Right	A	15/11/2016	13:22:02	24	TrialPrimaParte	gaseous	stilt	0	893	2
17	20	Female	Right	A	15/11/2016	13:22:02	25	TrialPrimaParte	missive	float	0	559	2
17	20	Female	Right	A	15/11/2016	13:22:02	26	TrialPrimaParte	centimetres	censar	2	796	1
17	20	Female	Right	A	15/11/2016	13:22:02	27	TrialPrimaParte	criminal	huare	2	735	1
17	20	Female	Right	A	15/11/2016	13:22:02	28	TrialPrimaParte	gravel	flixy	2	850	1
17	20	Female	Right	A	15/11/2016	13:22:02	29	TrialPrimaParte	vicarage	erupt	0	852	2
17	20	Female	Right	A	15/11/2016	13:22:02	30	TrialPrimaParte	alcoholic	fruit	0	591	2
17	20	Female	Right	A	15/11/2016	13:22:02	31	TrialPrimaParte	masonry	dream	0	542	2
17	20	Female	Right	A	15/11/2016	13:22:02	32	TrialPrimaParte	addition	employ	0	882	2
17	20	Female	Right	A	15/11/2016	13:22:02	33	TrialPrimaParte	paternal	siter	2	546	2
17	20	Female	Right	A	15/11/2016	13:22:02	34	TrialPrimaParte	fixture	strul	2	1259	1
17	20	Female	Right	A	15/11/2016	13:22:02	35	TrialPrimaParte	trolley	troll	1	601	2
17	20	Female	Right	A	15/11/2016	13:22:02	36	TrialPrimaParte	stunt	stun	1	1366	2
17	20	Female	Right	A	15/11/2016	13:22:02	37	TrialPrimaParte	passel	turp	2	754	1
17	20	Female	Right	A	15/11/2016	13:22:02	38	TrialPrimaParte	inherent	inpock	2	939	1
17	20	Female	Right	A	15/11/2016	13:22:02	39	TrialPrimaParte	sensuous	secly	2	711	1
17	20	Female	Right	A	15/11/2016	13:22:02	40	TrialPrimaParte	bomber	bomb	1	834	2
17	20	Female	Right	A	15/11/2016	13:22:02	41	TrialPrimaParte	vengeful	cherb	2	594	1
17	20	Female	Right	A	15/11/2016	13:22:02	42	TrialPrimaParte	timidly	arse	0	1028	2
17	20	Female	Right	A	15/11/2016	13:22:02	43	TrialPrimaParte	brandy	brand	1	554	2
17	20	Female	Right	A	15/11/2016	13:22:02	44	TrialPrimaParte	freeze	free	1	542	2
17	20	Female	Right	A	15/11/2016	13:22:02	45	TrialPrimaParte	neutron	whese	2	539	2
17	20	Female	Right	A	15/11/2016	13:22:02	46	TrialPrimaParte	viewer	view	1	555	2
17	20	Female	Right	A	15/11/2016	13:22:02	47	TrialPrimaParte	analogy	anopy	2	636	1
17	20	Female	Right	A	15/11/2016	13:22:02	48	TrialPrimaParte	tendency	critic	0	606	2
17	20	Female	Right	A	15/11/2016	13:22:02	49	TrialPrimaParte	fatal	fids	2	554	1
17	20	Female	Right	A	15/11/2016	13:22:02	50	TrialPrimaParte	marshy	marsh	1	1101	1
17	20	Female	Right	A	15/11/2016	13:22:02	51	TrialPrimaParte	planet	plan	1	441	2
17	20	Female	Right	A	15/11/2016	13:22:02	52	TrialPrimaParte	farcical	farxy	2	569	1
17	20	Female	Right	A	15/11/2016	13:22:02	53	TrialPrimaParte	united	unit	1	633	2
17	20	Female	Right	A	15/11/2016	13:22:02	54	TrialPrimaParte	socialiser	flepity	2	560	1
17	20	Female	Right	A	15/11/2016	13:22:02	55	TrialPrimaParte	watcher	angel	0	700	2
17	20	Female	Right	A	15/11/2016	13:22:02	56	TrialPrimaParte	illicit	ilkis	2	579	1
17	20	Female	Right	A	15/11/2016	13:22:02	57	TrialPrimaParte	twitch	twit	1	618	2
17	20	Female	Right	A	15/11/2016	13:22:02	58	TrialPrimaParte	crikey	brize	2	522	1
17	20	Female	Right	A	15/11/2016	13:22:02	59	TrialPrimaParte	murderous	invent	0	556	2
17	20	Female	Right	A	15/11/2016	13:22:02	60	TrialPrimaParte	public	pub	1	474	2
17	20	Female	Right	A	15/11/2016	13:22:02	61	TrialPrimaParte	snobby	snool	2	872	1
17	20	Female	Right	A	15/11/2016	13:22:02	62	TrialPrimaParte	sufferer	gloss	0	610	2
17	20	Female	Right	A	15/11/2016	13:22:02	63	TrialPrimaParte	service	count	0	530	2
17	20	Female	Right	A	15/11/2016	13:22:02	64	TrialPrimaParte	hydration	povic	2	661	1
17	20	Female	Right	A	15/11/2016	13:22:02	65	TrialPrimaParte	tamponade	ruffy	2	680	1
17	20	Female	Right	A	15/11/2016	13:22:02	66	TrialPrimaParte	trumpet	trump	1	515	2
17	20	Female	Right	A	15/11/2016	13:22:02	67	TrialPrimaParte	rebound	cous	2	868	2
17	20	Female	Right	A	15/11/2016	13:22:02	68	TrialPrimaParte	advisory	advock	2	858	1
17	20	Female	Right	A	15/11/2016	13:22:02	69	TrialPrimaParte	dusty	dusy	2	774	1
17	20	Female	Right	A	15/11/2016	13:22:02	70	TrialPrimaParte	boarder	board	1	574	2
17	20	Female	Right	A	15/11/2016	13:22:02	71	TrialPrimaParte	creamy	cream	1	442	2
17	20	Female	Right	A	15/11/2016	13:22:02	72	TrialPrimaParte	coaster	coast	1	480	2
17	20	Female	Right	A	15/11/2016	13:22:02	73	TrialPrimaParte	existent	gruel	0	925	2
17	20	Female	Right	A	15/11/2016	13:22:02	74	TrialPrimaParte	button	butt	1	459	2
17	20	Female	Right	A	15/11/2016	13:22:02	75	TrialPrimaParte	amateurish	inhibit	0	710	2
17	20	Female	Right	A	15/11/2016	13:22:02	76	TrialSecondaParte	tufted	tuft	1	695	1
17	20	Female	Right	A	15/11/2016	13:22:02	77	TrialSecondaParte	moulder	moure	2	747	1
17	20	Female	Right	A	15/11/2016	13:22:02	78	TrialSecondaParte	smelly	thuly	2	1093	1
17	20	Female	Right	A	15/11/2016	13:22:02	79	TrialSecondaParte	pottage	posch	2	870	1
17	20	Female	Right	A	15/11/2016	13:22:02	80	TrialSecondaParte	wearily	diet	0	505	2
17	20	Female	Right	A	15/11/2016	13:22:02	81	TrialSecondaParte	summit	sutty	2	922	1
17	20	Female	Right	A	15/11/2016	13:22:02	82	TrialSecondaParte	reliable	blidar	2	602	1
17	20	Female	Right	A	15/11/2016	13:22:02	83	TrialSecondaParte	content	conly	2	807	1
17	20	Female	Right	A	15/11/2016	13:22:02	84	TrialSecondaParte	nymphet	nymph	1	486	1
17	20	Female	Right	A	15/11/2016	13:22:02	85	TrialSecondaParte	geisha	crove	2	929	1
17	20	Female	Right	A	15/11/2016	13:22:02	86	TrialSecondaParte	supplant	plosy	2	598	1
17	20	Female	Right	A	15/11/2016	13:22:02	87	TrialSecondaParte	snobbish	green	0	538	2
17	20	Female	Right	A	15/11/2016	13:22:02	88	TrialSecondaParte	muffin	mufir	2	623	1
17	20	Female	Right	A	15/11/2016	13:22:02	89	TrialSecondaParte	vivacious	vicis	2	536	1
17	20	Female	Right	A	15/11/2016	13:22:02	90	TrialSecondaParte	ability	colon	0	655	2
17	20	Female	Right	A	15/11/2016	13:22:02	91	TrialSecondaParte	halogen	haly	2	660	1
17	20	Female	Right	A	15/11/2016	13:22:02	92	TrialSecondaParte	difference	difrol	2	597	1
17	20	Female	Right	A	15/11/2016	13:22:02	93	TrialSecondaParte	anxiously	legend	0	557	2
17	20	Female	Right	A	15/11/2016	13:22:02	94	TrialSecondaParte	mimicry	quiet	0	496	2
17	20	Female	Right	A	15/11/2016	13:22:02	95	TrialSecondaParte	education	educon	2	679	1
17	20	Female	Right	A	15/11/2016	13:22:02	96	TrialSecondaParte	forceps	force	1	546	2
17	20	Female	Right	A	15/11/2016	13:22:02	97	TrialSecondaParte	sight	sigh	1	514	2
17	20	Female	Right	A	15/11/2016	13:22:02	98	TrialSecondaParte	swotting	chuly	2	632	1
17	20	Female	Right	A	15/11/2016	13:22:02	99	TrialSecondaParte	ample	amp	1	619	1
17	20	Female	Right	A	15/11/2016	13:22:02	100	TrialSecondaParte	toaster	toast	1	485	2
17	20	Female	Right	A	15/11/2016	13:22:02	101	TrialSecondaParte	scanner	rast	2	510	2
17	20	Female	Right	A	15/11/2016	13:22:02	102	TrialSecondaParte	trashy	rell	2	1040	2
17	20	Female	Right	A	15/11/2016	13:22:02	103	TrialSecondaParte	gastric	waser	2	954	1
17	20	Female	Right	A	15/11/2016	13:22:02	104	TrialSecondaParte	classic	clals	2	683	1
17	20	Female	Right	A	15/11/2016	13:22:02	105	TrialSecondaParte	foundry	brisk	0	593	1
17	20	Female	Right	A	15/11/2016	13:22:02	106	TrialSecondaParte	rabbit	rabbi	1	644	1
17	20	Female	Right	A	15/11/2016	13:22:02	107	TrialSecondaParte	ceramic	cerbs	2	571	1
17	20	Female	Right	A	15/11/2016	13:22:02	108	TrialSecondaParte	friar	blyr	2	520	1
17	20	Female	Right	A	15/11/2016	13:22:02	109	TrialSecondaParte	putty	putt	1	626	1
17	20	Female	Right	A	15/11/2016	13:22:02	110	TrialSecondaParte	shovel	shove	1	415	1
17	20	Female	Right	A	15/11/2016	13:22:02	111	TrialSecondaParte	situation	govern	0	769	2
17	20	Female	Right	A	15/11/2016	13:22:02	112	TrialSecondaParte	crush	bemp	2	583	1
17	20	Female	Right	A	15/11/2016	13:22:02	113	TrialSecondaParte	snobbery	snotty	2	597	1
17	20	Female	Right	A	15/11/2016	13:22:02	114	TrialSecondaParte	abstract	fewtu	2	526	1
17	20	Female	Right	A	15/11/2016	13:22:02	115	TrialSecondaParte	fisher	fims	2	511	1
17	20	Female	Right	A	15/11/2016	13:22:02	116	TrialSecondaParte	starter	disc	0	596	1
17	20	Female	Right	A	15/11/2016	13:22:02	117	TrialSecondaParte	risky	risk	1	947	2
17	20	Female	Right	A	15/11/2016	13:22:02	118	TrialSecondaParte	finally	teach	0	560	2
17	20	Female	Right	A	15/11/2016	13:22:02	119	TrialSecondaParte	blush	blif	2	585	1
17	20	Female	Right	A	15/11/2016	13:22:02	120	TrialSecondaParte	yardage	yage	2	540	1
17	20	Female	Right	A	15/11/2016	13:22:02	121	TrialSecondaParte	griffin	spoff	2	689	1
17	20	Female	Right	A	15/11/2016	13:22:02	122	TrialSecondaParte	extremism	liquid	0	546	2
17	20	Female	Right	A	15/11/2016	13:22:02	123	TrialSecondaParte	opposition	nunfy	2	555	1
17	20	Female	Right	A	15/11/2016	13:22:02	124	TrialSecondaParte	benignly	basil	0	689	2
17	20	Female	Right	A	15/11/2016	13:22:02	125	TrialSecondaParte	lively	licey	2	598	1
17	20	Female	Right	A	15/11/2016	13:22:02	126	TrialSecondaParte	swivel	quat	2	864	1
17	20	Female	Right	A	15/11/2016	13:22:02	127	TrialSecondaParte	developer	court	0	523	2
17	20	Female	Right	A	15/11/2016	13:22:02	128	TrialSecondaParte	sudden	verty	2	583	1
17	20	Female	Right	A	15/11/2016	13:22:02	129	TrialSecondaParte	smuggle	smug	1	964	1
17	20	Female	Right	A	15/11/2016	13:22:02	130	TrialSecondaParte	treaty	treat	1	520	2
17	20	Female	Right	A	15/11/2016	13:22:02	131	TrialSecondaParte	sleet	slit	2	634	2
17	20	Female	Right	A	15/11/2016	13:22:02	132	TrialSecondaParte	enactment	cloud	0	578	2
17	20	Female	Right	A	15/11/2016	13:22:02	133	TrialSecondaParte	manual	mals	2	662	1
17	20	Female	Right	A	15/11/2016	13:22:02	134	TrialSecondaParte	guilty	guilt	1	509	2
17	20	Female	Right	A	15/11/2016	13:22:02	135	TrialSecondaParte	utter	uls	2	509	1
17	20	Female	Right	A	15/11/2016	13:22:02	136	TrialSecondaParte	fibrosis	shuar	2	572	1
17	20	Female	Right	A	15/11/2016	13:22:02	137	TrialSecondaParte	scrooge	plich	2	659	1
17	20	Female	Right	A	15/11/2016	13:22:02	138	TrialSecondaParte	believer	append	0	729	1
17	20	Female	Right	A	15/11/2016	13:22:02	139	TrialSecondaParte	filthy	filth	1	640	2
17	20	Female	Right	A	15/11/2016	13:22:02	140	TrialSecondaParte	perhaps	again	0	671	2
17	20	Female	Right	A	15/11/2016	13:22:02	141	TrialSecondaParte	pulpit	pulp	1	509	2
17	20	Female	Right	A	15/11/2016	13:22:02	142	TrialSecondaParte	voucher	baron	0	640	2
17	20	Female	Right	A	15/11/2016	13:22:02	143	TrialSecondaParte	jauntily	scald	0	825	1
17	20	Female	Right	A	15/11/2016	13:22:02	144	TrialSecondaParte	heaven	heave	1	690	2
17	20	Female	Right	A	15/11/2016	13:22:02	145	TrialSecondaParte	poetry	poet	1	497	2
17	20	Female	Right	A	15/11/2016	13:22:02	146	TrialSecondaParte	composer	alarm	0	667	2
17	20	Female	Right	A	15/11/2016	13:22:02	147	TrialSecondaParte	bubble	glef	2	621	1
17	20	Female	Right	A	15/11/2016	13:22:02	148	TrialSecondaParte	edible	esigh	2	535	1
17	20	Female	Right	A	15/11/2016	13:22:02	149	TrialSecondaParte	exemption	renew	0	856	2
17	20	Female	Right	A	15/11/2016	13:22:02	150	TrialSecondaParte	dialog	dial	1	710	2
17	20	Female	Right	A	15/11/2016	13:22:02	151	TrialTerzaParte	stirrup	stir	1	625	2
17	20	Female	Right	A	15/11/2016	13:22:02	152	TrialTerzaParte	dysentery	ranin	2	917	1
17	20	Female	Right	A	15/11/2016	13:22:02	153	TrialTerzaParte	acidic	acid	1	504	2
17	20	Female	Right	A	15/11/2016	13:22:02	154	TrialTerzaParte	portal	balp	2	1099	1
17	20	Female	Right	A	15/11/2016	13:22:02	155	TrialTerzaParte	equally	comma	0	903	2
17	20	Female	Right	A	15/11/2016	13:22:02	156	TrialTerzaParte	abstain	abter	2	618	1
17	20	Female	Right	A	15/11/2016	13:22:02	157	TrialTerzaParte	dweller	crypt	0	817	2
17	20	Female	Right	A	15/11/2016	13:22:02	158	TrialTerzaParte	vertical	verks	2	654	1
17	20	Female	Right	A	15/11/2016	13:22:02	159	TrialTerzaParte	plush	plus	1	470	2
17	20	Female	Right	A	15/11/2016	13:22:02	160	TrialTerzaParte	citation	fuse	0	942	2
17	20	Female	Right	A	15/11/2016	13:22:02	161	TrialTerzaParte	unique	unzed	2	704	1
17	20	Female	Right	A	15/11/2016	13:22:02	162	TrialTerzaParte	plunder	acre	0	1000	2
17	20	Female	Right	A	15/11/2016	13:22:02	163	TrialTerzaParte	loyally	buzz	0	639	2
17	20	Female	Right	A	15/11/2016	13:22:02	164	TrialTerzaParte	validity	infant	0	553	2
17	20	Female	Right	A	15/11/2016	13:22:02	165	TrialTerzaParte	armoury	arwor	2	860	1
17	20	Female	Right	A	15/11/2016	13:22:02	166	TrialTerzaParte	mourner	mourn	1	562	2
17	20	Female	Right	A	15/11/2016	13:22:02	167	TrialTerzaParte	stroke	cligh	2	638	1
17	20	Female	Right	A	15/11/2016	13:22:02	168	TrialTerzaParte	production	depart	0	1006	2
17	20	Female	Right	A	15/11/2016	13:22:02	169	TrialTerzaParte	twinkle	twin	1	556	2
17	20	Female	Right	A	15/11/2016	13:22:02	170	TrialTerzaParte	palpably	amen	0	497	2
17	20	Female	Right	A	15/11/2016	13:22:02	171	TrialTerzaParte	quartz	quart	1	587	2
17	20	Female	Right	A	15/11/2016	13:22:02	172	TrialTerzaParte	deficit	dety	2	958	1
17	20	Female	Right	A	15/11/2016	13:22:02	173	TrialTerzaParte	haulier	halfe	2	1156	1
17	20	Female	Right	A	15/11/2016	13:22:02	174	TrialTerzaParte	chilly	chill	1	508	2
17	20	Female	Right	A	15/11/2016	13:22:02	175	TrialTerzaParte	fossilise	oxygen	0	685	2
17	20	Female	Right	A	15/11/2016	13:22:02	176	TrialTerzaParte	broiler	plum	0	523	2
17	20	Female	Right	A	15/11/2016	13:22:02	177	TrialTerzaParte	talker	claf	2	824	1
17	20	Female	Right	A	15/11/2016	13:22:02	178	TrialTerzaParte	squawk	squaw	1	720	1
17	20	Female	Right	A	15/11/2016	13:22:02	179	TrialTerzaParte	killer	lalf	2	941	1
17	20	Female	Right	A	15/11/2016	13:22:02	180	TrialTerzaParte	passant	pasks	2	746	1
17	20	Female	Right	A	15/11/2016	13:22:02	181	TrialTerzaParte	sniper	snip	1	739	2
17	20	Female	Right	A	15/11/2016	13:22:02	182	TrialTerzaParte	crafty	craft	1	548	2
17	20	Female	Right	A	15/11/2016	13:22:02	183	TrialTerzaParte	defector	stamp	0	541	2
17	20	Female	Right	A	15/11/2016	13:22:02	184	TrialTerzaParte	medical	surf	0	586	2
17	20	Female	Right	A	15/11/2016	13:22:02	185	TrialTerzaParte	answer	anwe	2	585	1
17	20	Female	Right	A	15/11/2016	13:22:02	186	TrialTerzaParte	absence	agsel	2	596	1
17	20	Female	Right	A	15/11/2016	13:22:02	187	TrialTerzaParte	hatchery	fighy	2	720	1
17	20	Female	Right	A	15/11/2016	13:22:02	188	TrialTerzaParte	skylight	skigh	2	567	1
17	20	Female	Right	A	15/11/2016	13:22:02	189	TrialTerzaParte	faceless	facmod	2	649	1
17	20	Female	Right	A	15/11/2016	13:22:02	190	TrialTerzaParte	golfer	golf	1	543	2
17	20	Female	Right	A	15/11/2016	13:22:02	191	TrialTerzaParte	irony	iron	1	505	2
17	20	Female	Right	A	15/11/2016	13:22:02	192	TrialTerzaParte	booklet	text	0	600	2
17	20	Female	Right	A	15/11/2016	13:22:02	193	TrialTerzaParte	veteran	venic	2	713	1
17	20	Female	Right	A	15/11/2016	13:22:02	194	TrialTerzaParte	adopted	adopt	1	523	2
17	20	Female	Right	A	15/11/2016	13:22:02	195	TrialTerzaParte	widowed	widow	1	582	2
17	20	Female	Right	A	15/11/2016	13:22:02	196	TrialTerzaParte	fleshy	flesh	1	497	2
17	20	Female	Right	A	15/11/2016	13:22:02	197	TrialTerzaParte	revolutionary	intern	0	531	2
17	20	Female	Right	A	15/11/2016	13:22:02	198	TrialTerzaParte	repertory	repty	2	837	1
17	20	Female	Right	A	15/11/2016	13:22:02	199	TrialTerzaParte	kinetic	kinse	2	827	1
17	20	Female	Right	A	15/11/2016	13:22:02	200	TrialTerzaParte	routeing	tomed	2	653	1
17	20	Female	Right	A	15/11/2016	13:22:02	201	TrialTerzaParte	maternal	malern	2	671	1
17	20	Female	Right	A	15/11/2016	13:22:02	202	TrialTerzaParte	message	rosty	2	716	2
17	20	Female	Right	A	15/11/2016	13:22:02	203	TrialTerzaParte	archer	arch	1	696	2
17	20	Female	Right	A	15/11/2016	13:22:02	204	TrialTerzaParte	jerkin	jerk	1	640	2
17	20	Female	Right	A	15/11/2016	13:22:02	205	TrialTerzaParte	narrowly	scull	0	1154	1
17	20	Female	Right	A	15/11/2016	13:22:02	206	TrialTerzaParte	bulbous	bulb	1	571	2
17	20	Female	Right	A	15/11/2016	13:22:02	207	TrialTerzaParte	distantly	facet	0	684	1
17	20	Female	Right	A	15/11/2016	13:22:02	208	TrialTerzaParte	lectureship	parent	0	796	2
17	20	Female	Right	A	15/11/2016	13:22:02	209	TrialTerzaParte	merrier	merks	2	982	1
17	20	Female	Right	A	15/11/2016	13:22:02	210	TrialTerzaParte	bearded	beard	1	569	2
17	20	Female	Right	A	15/11/2016	13:22:02	211	TrialTerzaParte	phoenix	blont	2	775	1
17	20	Female	Right	A	15/11/2016	13:22:02	212	TrialTerzaParte	instruction	demon	0	663	2
17	20	Female	Right	A	15/11/2016	13:22:02	213	TrialTerzaParte	sovereign	sovign	2	732	1
17	20	Female	Right	A	15/11/2016	13:22:02	214	TrialTerzaParte	biscuit	bist	2	1140	1
17	20	Female	Right	A	15/11/2016	13:22:02	215	TrialTerzaParte	nincompoops	ninpoo	2	622	1
17	20	Female	Right	A	15/11/2016	13:22:02	216	TrialTerzaParte	helmet	helm	1	611	2
17	20	Female	Right	A	15/11/2016	13:22:02	217	TrialTerzaParte	piratical	pirent	2	788	1
17	20	Female	Right	A	15/11/2016	13:22:02	218	TrialTerzaParte	tributary	calin	2	622	1
17	20	Female	Right	A	15/11/2016	13:22:02	219	TrialTerzaParte	ribbon	ribed	2	839	1
17	20	Female	Right	A	15/11/2016	13:22:02	220	TrialTerzaParte	airtight	aith	2	613	1
17	20	Female	Right	A	15/11/2016	13:22:02	221	TrialTerzaParte	revolutionise	sivert	2	602	1
17	20	Female	Right	A	15/11/2016	13:22:02	222	TrialTerzaParte	desert	dert	2	1012	1
17	20	Female	Right	A	15/11/2016	13:22:02	223	TrialTerzaParte	linkage	flion	2	602	1
17	20	Female	Right	A	15/11/2016	13:22:02	224	TrialTerzaParte	trainee	train	1	631	2
17	20	Female	Right	A	15/11/2016	13:22:02	225	TrialTerzaParte	rumbling	ether	0	588	2
17	20	Female	Right	A	15/11/2016	13:22:02	226	TrialQuartaParte	justify	extra	0	564	2
17	20	Female	Right	A	15/11/2016	13:22:02	227	TrialQuartaParte	power	mord	2	697	1
17	20	Female	Right	A	15/11/2016	13:22:02	228	TrialQuartaParte	bourbon	boun	2	662	1
17	20	Female	Right	A	15/11/2016	13:22:02	229	TrialQuartaParte	novelty	surge	0	683	2
17	20	Female	Right	A	15/11/2016	13:22:02	230	TrialQuartaParte	weird	weir	1	906	1
17	20	Female	Right	A	15/11/2016	13:22:02	231	TrialQuartaParte	itinerary	itiner	2	966	1
17	20	Female	Right	A	15/11/2016	13:22:02	232	TrialQuartaParte	crooked	crook	1	501	2
17	20	Female	Right	A	15/11/2016	13:22:02	233	TrialQuartaParte	original	orive	2	666	1
17	20	Female	Right	A	15/11/2016	13:22:02	234	TrialQuartaParte	tackler	lerf	2	728	1
17	20	Female	Right	A	15/11/2016	13:22:02	235	TrialQuartaParte	early	earl	1	847	2
17	20	Female	Right	A	15/11/2016	13:22:02	236	TrialQuartaParte	feathery	drunk	0	619	2
17	20	Female	Right	A	15/11/2016	13:22:02	237	TrialQuartaParte	awaken	tood	2	722	1
17	20	Female	Right	A	15/11/2016	13:22:02	238	TrialQuartaParte	culprit	cuti	2	559	1
17	20	Female	Right	A	15/11/2016	13:22:02	239	TrialQuartaParte	gaiety	harse	2	846	2
17	20	Female	Right	A	15/11/2016	13:22:02	240	TrialQuartaParte	decision	posig	2	755	1
17	20	Female	Right	A	15/11/2016	13:22:02	241	TrialQuartaParte	shunt	shun	1	592	1
17	20	Female	Right	A	15/11/2016	13:22:02	242	TrialQuartaParte	engage	yurd	2	606	1
17	20	Female	Right	A	15/11/2016	13:22:02	243	TrialQuartaParte	grouse	gruf	2	528	1
17	20	Female	Right	A	15/11/2016	13:22:02	244	TrialQuartaParte	turmoil	furm	2	902	1
17	20	Female	Right	A	15/11/2016	13:22:02	245	TrialQuartaParte	tactile	tact	1	1017	2
17	20	Female	Right	A	15/11/2016	13:22:02	246	TrialQuartaParte	steadily	ration	0	617	2
17	20	Female	Right	A	15/11/2016	13:22:02	247	TrialQuartaParte	plucky	pluck	1	525	2
17	20	Female	Right	A	15/11/2016	13:22:02	248	TrialQuartaParte	pummel	syly	2	537	1
17	20	Female	Right	A	15/11/2016	13:22:02	249	TrialQuartaParte	cranky	crony	2	1025	1
17	20	Female	Right	A	15/11/2016	13:22:02	250	TrialQuartaParte	bloody	blood	1	541	2
17	20	Female	Right	A	15/11/2016	13:22:02	251	TrialQuartaParte	selfless	audit	0	617	1
17	20	Female	Right	A	15/11/2016	13:22:02	252	TrialQuartaParte	struggled	neigh	0	568	1
17	20	Female	Right	A	15/11/2016	13:22:02	253	TrialQuartaParte	glade	glad	1	1075	1
17	20	Female	Right	A	15/11/2016	13:22:02	254	TrialQuartaParte	signal	quir	2	612	1
17	20	Female	Right	A	15/11/2016	13:22:02	255	TrialQuartaParte	number	numb	1	576	2
17	20	Female	Right	A	15/11/2016	13:22:02	256	TrialQuartaParte	calmness	artist	0	551	2
17	20	Female	Right	A	15/11/2016	13:22:02	257	TrialQuartaParte	idealism	splint	0	948	1
17	20	Female	Right	A	15/11/2016	13:22:02	258	TrialQuartaParte	whisker	whisk	1	589	2
17	20	Female	Right	A	15/11/2016	13:22:02	259	TrialQuartaParte	warfare	broth	0	610	2
17	20	Female	Right	A	15/11/2016	13:22:02	260	TrialQuartaParte	graphic	blamp	2	755	1
17	20	Female	Right	A	15/11/2016	13:22:02	261	TrialQuartaParte	syphilis	ruar	2	631	1
17	20	Female	Right	A	15/11/2016	13:22:02	262	TrialQuartaParte	rancour	brits	2	823	1
17	20	Female	Right	A	15/11/2016	13:22:02	263	TrialQuartaParte	legacy	lecy	2	936	1
17	20	Female	Right	A	15/11/2016	13:22:02	264	TrialQuartaParte	dreadful	phone	0	655	2
17	20	Female	Right	A	15/11/2016	13:22:02	265	TrialQuartaParte	simplify	fleet	0	673	2
17	20	Female	Right	A	15/11/2016	13:22:02	266	TrialQuartaParte	soften	soft	1	482	2
17	20	Female	Right	A	15/11/2016	13:22:02	267	TrialQuartaParte	gloomy	gloom	1	494	2
17	20	Female	Right	A	15/11/2016	13:22:02	268	TrialQuartaParte	signet	sign	1	523	2
17	20	Female	Right	A	15/11/2016	13:22:02	269	TrialQuartaParte	upstart	pumy	2	645	1
17	20	Female	Right	A	15/11/2016	13:22:02	270	TrialQuartaParte	postage	poth	2	869	1
17	20	Female	Right	A	15/11/2016	13:22:02	271	TrialQuartaParte	stressful	abgaid	2	787	1
17	20	Female	Right	A	15/11/2016	13:22:02	272	TrialQuartaParte	fizzle	fizz	1	1080	2
17	20	Female	Right	A	15/11/2016	13:22:02	273	TrialQuartaParte	absurdity	plain	0	588	2
17	20	Female	Right	A	15/11/2016	13:22:02	274	TrialQuartaParte	flicker	flick	1	656	2
17	20	Female	Right	A	15/11/2016	13:22:02	275	TrialQuartaParte	maximum	suyte	2	524	1
17	20	Female	Right	A	15/11/2016	13:22:02	276	TrialQuartaParte	ambush	amshy	2	1151	2
17	20	Female	Right	A	15/11/2016	13:22:02	277	TrialQuartaParte	physical	react	0	645	2
17	20	Female	Right	A	15/11/2016	13:22:02	278	TrialQuartaParte	suburban	elect	0	545	2
17	20	Female	Right	A	15/11/2016	13:22:02	279	TrialQuartaParte	anaesthetic	invest	0	515	2
17	20	Female	Right	A	15/11/2016	13:22:02	280	TrialQuartaParte	prosecution	leler	2	730	1
17	20	Female	Right	A	15/11/2016	13:22:02	281	TrialQuartaParte	category	cagre	2	672	1
17	20	Female	Right	A	15/11/2016	13:22:02	282	TrialQuartaParte	jetty	kuty	2	621	1
17	20	Female	Right	A	15/11/2016	13:22:02	283	TrialQuartaParte	polite	tind	2	817	1
17	20	Female	Right	A	15/11/2016	13:22:02	284	TrialQuartaParte	foetal	fongs	2	671	1
17	20	Female	Right	A	15/11/2016	13:22:02	285	TrialQuartaParte	child	sild	2	743	1
17	20	Female	Right	A	15/11/2016	13:22:02	286	TrialQuartaParte	raffle	rafel	2	654	1
17	20	Female	Right	A	15/11/2016	13:22:02	287	TrialQuartaParte	epileptic	candid	0	643	2
17	20	Female	Right	A	15/11/2016	13:22:02	288	TrialQuartaParte	crummy	meye	2	539	1
17	20	Female	Right	A	15/11/2016	13:22:02	289	TrialQuartaParte	gluteal	abtle	2	710	1
17	20	Female	Right	A	15/11/2016	13:22:02	290	TrialQuartaParte	hearty	heart	1	618	2
17	20	Female	Right	A	15/11/2016	13:22:02	291	TrialQuartaParte	scruffy	thick	0	703	2
17	20	Female	Right	A	15/11/2016	13:22:02	292	TrialQuartaParte	plonking	pluny	2	663	1
17	20	Female	Right	A	15/11/2016	13:22:02	293	TrialQuartaParte	damsel	dalp	2	570	1
17	20	Female	Right	A	15/11/2016	13:22:02	294	TrialQuartaParte	fabulous	smaply	2	558	1
17	20	Female	Right	A	15/11/2016	13:22:02	295	TrialQuartaParte	actually	quest	0	985	1
17	20	Female	Right	A	15/11/2016	13:22:02	296	TrialQuartaParte	scrape	scrap	1	1075	2
17	20	Female	Right	A	15/11/2016	13:22:02	297	TrialQuartaParte	lethal	lerd	2	785	1
17	20	Female	Right	A	15/11/2016	13:22:02	298	TrialQuartaParte	fanatic	fanty	2	565	1
17	20	Female	Right	A	15/11/2016	13:22:02	299	TrialQuartaParte	asterix	cret	2	697	1
17	20	Female	Right	A	15/11/2016	13:22:02	300	TrialQuartaParte	penguin	phorb	2	555	1
