Subject	Age	Gender	Handedness	Rotation	Data	OraStart	TrialCount	TrialType	Prime	Target	Relatedness	rt	Resp
41	25	Male	Right	A	31/08/2017	11:59:59	1	Prova	wellness	well	4	604	2
41	25	Male	Right	A	31/08/2017	11:59:59	2	Prova	homeless	home	4	613	2
41	25	Male	Right	A	31/08/2017	11:59:59	3	Prova	tricky	tricker	4	811	1
41	25	Male	Right	A	31/08/2017	11:59:59	4	Prova	character	char	4	961	1
41	25	Male	Right	A	31/08/2017	11:59:59	5	Prova	translater	pulter	4	1408	2
41	25	Male	Right	A	31/08/2017	11:59:59	6	Prova2	escape	exat	4	1159	1
41	25	Male	Right	A	31/08/2017	11:59:59	7	Prova2	investigator	invest	4	832	2
41	25	Male	Right	A	31/08/2017	11:59:59	8	Prova2	examiner	exam	4	1056	2
41	25	Male	Right	A	31/08/2017	11:59:59	9	Prova2	topic	top	4	696	2
41	25	Male	Right	A	31/08/2017	11:59:59	1	Warmup	unpack	pack	5	672	2
41	25	Male	Right	A	31/08/2017	11:59:59	2	Warmup	tartare	tariff	5	886	1
41	25	Male	Right	A	31/08/2017	11:59:59	3	Warmup	cowrie	sturms	5	1004	1
41	25	Male	Right	A	31/08/2017	11:59:59	4	Warmup	cortex	newbie	5	1003	2
41	25	Male	Right	A	31/08/2017	11:59:59	5	Warmup	pullma	pulm	5	748	1
41	25	Male	Right	A	31/08/2017	11:59:59	1	TrialPrimaParte	anxiously	legend	0	679	2
41	25	Male	Right	A	31/08/2017	11:59:59	2	TrialPrimaParte	trolley	troll	1	862	2
41	25	Male	Right	A	31/08/2017	11:59:59	3	TrialPrimaParte	glade	glad	1	704	2
41	25	Male	Right	A	31/08/2017	11:59:59	4	TrialPrimaParte	crummy	meye	2	695	1
41	25	Male	Right	A	31/08/2017	11:59:59	5	TrialPrimaParte	power	mord	2	669	1
41	25	Male	Right	A	31/08/2017	11:59:59	6	TrialPrimaParte	filthy	filth	1	766	2
41	25	Male	Right	A	31/08/2017	11:59:59	7	TrialPrimaParte	linkage	flion	2	689	1
41	25	Male	Right	A	31/08/2017	11:59:59	8	TrialPrimaParte	crikey	brize	2	975	1
41	25	Male	Right	A	31/08/2017	11:59:59	9	TrialPrimaParte	skylight	skigh	2	758	1
41	25	Male	Right	A	31/08/2017	11:59:59	10	TrialPrimaParte	content	conly	2	625	1
41	25	Male	Right	A	31/08/2017	11:59:59	11	TrialPrimaParte	cranky	crony	2	835	1
41	25	Male	Right	A	31/08/2017	11:59:59	12	TrialPrimaParte	damsel	dalp	2	699	1
41	25	Male	Right	A	31/08/2017	11:59:59	13	TrialPrimaParte	classic	clals	2	721	1
41	25	Male	Right	A	31/08/2017	11:59:59	14	TrialPrimaParte	voucher	baron	0	806	2
41	25	Male	Right	A	31/08/2017	11:59:59	15	TrialPrimaParte	maternal	malern	2	742	1
41	25	Male	Right	A	31/08/2017	11:59:59	16	TrialPrimaParte	snobbish	green	0	596	2
41	25	Male	Right	A	31/08/2017	11:59:59	17	TrialPrimaParte	shovel	shove	1	675	2
41	25	Male	Right	A	31/08/2017	11:59:59	18	TrialPrimaParte	starter	disc	0	826	2
41	25	Male	Right	A	31/08/2017	11:59:59	19	TrialPrimaParte	boarder	board	1	662	2
41	25	Male	Right	A	31/08/2017	11:59:59	20	TrialPrimaParte	rancour	brits	2	855	1
41	25	Male	Right	A	31/08/2017	11:59:59	21	TrialPrimaParte	archer	arch	1	707	2
41	25	Male	Right	A	31/08/2017	11:59:59	22	TrialPrimaParte	legacy	lecy	2	759	1
41	25	Male	Right	A	31/08/2017	11:59:59	23	TrialPrimaParte	murderous	invent	0	680	2
41	25	Male	Right	A	31/08/2017	11:59:59	24	TrialPrimaParte	scrape	scrap	1	975	1
41	25	Male	Right	A	31/08/2017	11:59:59	25	TrialPrimaParte	blush	blif	2	790	1
41	25	Male	Right	A	31/08/2017	11:59:59	26	TrialPrimaParte	decision	posig	2	691	1
41	25	Male	Right	A	31/08/2017	11:59:59	27	TrialPrimaParte	dusty	dusy	2	816	1
41	25	Male	Right	A	31/08/2017	11:59:59	28	TrialPrimaParte	tactile	tact	1	558	2
41	25	Male	Right	A	31/08/2017	11:59:59	29	TrialPrimaParte	halogen	haly	2	869	1
41	25	Male	Right	A	31/08/2017	11:59:59	30	TrialPrimaParte	paternal	siter	2	880	1
41	25	Male	Right	A	31/08/2017	11:59:59	31	TrialPrimaParte	grossly	villa	0	851	2
41	25	Male	Right	A	31/08/2017	11:59:59	32	TrialPrimaParte	manual	mals	2	1043	1
41	25	Male	Right	A	31/08/2017	11:59:59	33	TrialPrimaParte	gravel	flixy	2	1136	1
41	25	Male	Right	A	31/08/2017	11:59:59	34	TrialPrimaParte	heaven	heave	1	1214	1
41	25	Male	Right	A	31/08/2017	11:59:59	35	TrialPrimaParte	sufferer	gloss	0	1013	2
41	25	Male	Right	A	31/08/2017	11:59:59	36	TrialPrimaParte	moulder	moure	2	798	1
41	25	Male	Right	A	31/08/2017	11:59:59	37	TrialPrimaParte	crush	bemp	2	784	1
41	25	Male	Right	A	31/08/2017	11:59:59	38	TrialPrimaParte	gloomy	gloom	1	598	2
41	25	Male	Right	A	31/08/2017	11:59:59	39	TrialPrimaParte	hearty	heart	1	708	2
41	25	Male	Right	A	31/08/2017	11:59:59	40	TrialPrimaParte	dragon	dron	2	789	1
41	25	Male	Right	A	31/08/2017	11:59:59	41	TrialPrimaParte	fabulous	smaply	2	737	1
41	25	Male	Right	A	31/08/2017	11:59:59	42	TrialPrimaParte	merrier	merks	2	626	1
41	25	Male	Right	A	31/08/2017	11:59:59	43	TrialPrimaParte	number	numb	1	974	2
41	25	Male	Right	A	31/08/2017	11:59:59	44	TrialPrimaParte	supplant	plosy	2	895	1
41	25	Male	Right	A	31/08/2017	11:59:59	45	TrialPrimaParte	ability	colon	0	793	2
41	25	Male	Right	A	31/08/2017	11:59:59	46	TrialPrimaParte	plunder	acre	0	954	2
41	25	Male	Right	A	31/08/2017	11:59:59	47	TrialPrimaParte	highlight	gylpo	2	736	1
41	25	Male	Right	A	31/08/2017	11:59:59	48	TrialPrimaParte	adopted	adopt	1	712	2
41	25	Male	Right	A	31/08/2017	11:59:59	49	TrialPrimaParte	muffin	mufir	2	686	1
41	25	Male	Right	A	31/08/2017	11:59:59	50	TrialPrimaParte	validity	infant	0	719	2
41	25	Male	Right	A	31/08/2017	11:59:59	51	TrialPrimaParte	phoenix	blont	2	810	1
41	25	Male	Right	A	31/08/2017	11:59:59	52	TrialPrimaParte	tufted	tuft	1	1056	1
41	25	Male	Right	A	31/08/2017	11:59:59	53	TrialPrimaParte	pummel	syly	2	739	1
41	25	Male	Right	A	31/08/2017	11:59:59	54	TrialPrimaParte	fossilise	oxygen	0	721	2
41	25	Male	Right	A	31/08/2017	11:59:59	55	TrialPrimaParte	asterix	cret	2	971	2
41	25	Male	Right	A	31/08/2017	11:59:59	56	TrialPrimaParte	bloody	blood	1	580	2
41	25	Male	Right	A	31/08/2017	11:59:59	57	TrialPrimaParte	grouse	gruf	2	588	1
41	25	Male	Right	A	31/08/2017	11:59:59	58	TrialPrimaParte	cousin	coul	2	708	1
41	25	Male	Right	A	31/08/2017	11:59:59	59	TrialPrimaParte	original	orive	2	647	1
41	25	Male	Right	A	31/08/2017	11:59:59	60	TrialPrimaParte	planet	plan	1	587	2
41	25	Male	Right	A	31/08/2017	11:59:59	61	TrialPrimaParte	socialiser	flepity	2	1151	1
41	25	Male	Right	A	31/08/2017	11:59:59	62	TrialPrimaParte	plonking	pluny	2	631	1
41	25	Male	Right	A	31/08/2017	11:59:59	63	TrialPrimaParte	bulbous	bulb	1	588	2
41	25	Male	Right	A	31/08/2017	11:59:59	64	TrialPrimaParte	polite	tind	2	936	1
41	25	Male	Right	A	31/08/2017	11:59:59	65	TrialPrimaParte	griffin	spoff	2	689	1
41	25	Male	Right	A	31/08/2017	11:59:59	66	TrialPrimaParte	monastery	fagor	2	777	1
41	25	Male	Right	A	31/08/2017	11:59:59	67	TrialPrimaParte	irony	iron	1	579	2
41	25	Male	Right	A	31/08/2017	11:59:59	68	TrialPrimaParte	swivel	quat	2	740	1
41	25	Male	Right	A	31/08/2017	11:59:59	69	TrialPrimaParte	revolutionise	sivert	2	1037	1
41	25	Male	Right	A	31/08/2017	11:59:59	70	TrialPrimaParte	twitch	twit	1	850	1
41	25	Male	Right	A	31/08/2017	11:59:59	71	TrialPrimaParte	idealism	splint	0	1512	1
41	25	Male	Right	A	31/08/2017	11:59:59	72	TrialPrimaParte	plush	plus	1	997	2
41	25	Male	Right	A	31/08/2017	11:59:59	73	TrialPrimaParte	squawk	squaw	1	863	1
41	25	Male	Right	A	31/08/2017	11:59:59	74	TrialPrimaParte	simplify	fleet	0	725	2
41	25	Male	Right	A	31/08/2017	11:59:59	75	TrialPrimaParte	tributary	calin	2	760	1
41	25	Male	Right	A	31/08/2017	11:59:59	76	TrialSecondaParte	ambush	amshy	2	891	1
41	25	Male	Right	A	31/08/2017	11:59:59	77	TrialSecondaParte	missive	float	0	529	2
41	25	Male	Right	A	31/08/2017	11:59:59	78	TrialSecondaParte	pulpit	pulp	1	574	2
41	25	Male	Right	A	31/08/2017	11:59:59	79	TrialSecondaParte	finally	teach	0	1149	2
41	25	Male	Right	A	31/08/2017	11:59:59	80	TrialSecondaParte	talker	claf	2	840	1
41	25	Male	Right	A	31/08/2017	11:59:59	81	TrialSecondaParte	centimetres	censar	2	813	1
41	25	Male	Right	A	31/08/2017	11:59:59	82	TrialSecondaParte	ribbon	ribed	2	854	1
41	25	Male	Right	A	31/08/2017	11:59:59	83	TrialSecondaParte	plucky	pluck	1	751	2
41	25	Male	Right	A	31/08/2017	11:59:59	84	TrialSecondaParte	prosecution	leler	2	715	1
41	25	Male	Right	A	31/08/2017	11:59:59	85	TrialSecondaParte	vengeful	cherb	2	726	1
41	25	Male	Right	A	31/08/2017	11:59:59	86	TrialSecondaParte	utter	uls	2	573	1
41	25	Male	Right	A	31/08/2017	11:59:59	87	TrialSecondaParte	foetal	fongs	2	606	1
41	25	Male	Right	A	31/08/2017	11:59:59	88	TrialSecondaParte	bourbon	boun	2	690	1
41	25	Male	Right	A	31/08/2017	11:59:59	89	TrialSecondaParte	citation	fuse	0	744	2
41	25	Male	Right	A	31/08/2017	11:59:59	90	TrialSecondaParte	repertory	repty	2	549	1
41	25	Male	Right	A	31/08/2017	11:59:59	91	TrialSecondaParte	dialog	dial	1	645	2
41	25	Male	Right	A	31/08/2017	11:59:59	92	TrialSecondaParte	instruction	demon	0	720	2
41	25	Male	Right	A	31/08/2017	11:59:59	93	TrialSecondaParte	fibrosis	shuar	2	534	1
41	25	Male	Right	A	31/08/2017	11:59:59	94	TrialSecondaParte	coaster	coast	1	506	2
41	25	Male	Right	A	31/08/2017	11:59:59	95	TrialSecondaParte	portal	balp	2	538	1
41	25	Male	Right	A	31/08/2017	11:59:59	96	TrialSecondaParte	flicker	flick	1	571	2
41	25	Male	Right	A	31/08/2017	11:59:59	97	TrialSecondaParte	warfare	broth	0	933	1
41	25	Male	Right	A	31/08/2017	11:59:59	98	TrialSecondaParte	answer	anwe	2	777	1
41	25	Male	Right	A	31/08/2017	11:59:59	99	TrialSecondaParte	creamy	cream	1	555	2
41	25	Male	Right	A	31/08/2017	11:59:59	100	TrialSecondaParte	rabbit	rabbi	1	583	1
41	25	Male	Right	A	31/08/2017	11:59:59	101	TrialSecondaParte	amateurish	inhibit	0	670	2
41	25	Male	Right	A	31/08/2017	11:59:59	102	TrialSecondaParte	vivacious	vicis	2	676	1
41	25	Male	Right	A	31/08/2017	11:59:59	103	TrialSecondaParte	existent	gruel	0	853	1
41	25	Male	Right	A	31/08/2017	11:59:59	104	TrialSecondaParte	olympic	olick	2	644	1
41	25	Male	Right	A	31/08/2017	11:59:59	105	TrialSecondaParte	category	cagre	2	621	1
41	25	Male	Right	A	31/08/2017	11:59:59	106	TrialSecondaParte	suburban	elect	0	614	2
41	25	Male	Right	A	31/08/2017	11:59:59	107	TrialSecondaParte	equipment	agree	0	563	2
41	25	Male	Right	A	31/08/2017	11:59:59	108	TrialSecondaParte	absence	agsel	2	572	1
41	25	Male	Right	A	31/08/2017	11:59:59	109	TrialSecondaParte	pottage	posch	2	514	1
41	25	Male	Right	A	31/08/2017	11:59:59	110	TrialSecondaParte	stunt	stun	1	784	2
41	25	Male	Right	A	31/08/2017	11:59:59	111	TrialSecondaParte	viewer	view	1	667	2
41	25	Male	Right	A	31/08/2017	11:59:59	112	TrialSecondaParte	plastic	spaxe	2	567	1
41	25	Male	Right	A	31/08/2017	11:59:59	113	TrialSecondaParte	novelty	surge	0	646	2
41	25	Male	Right	A	31/08/2017	11:59:59	114	TrialSecondaParte	mimicry	quiet	0	592	2
41	25	Male	Right	A	31/08/2017	11:59:59	115	TrialSecondaParte	organic	organ	1	528	2
41	25	Male	Right	A	31/08/2017	11:59:59	116	TrialSecondaParte	wearily	diet	0	537	2
41	25	Male	Right	A	31/08/2017	11:59:59	117	TrialSecondaParte	jerkin	jerk	1	773	2
41	25	Male	Right	A	31/08/2017	11:59:59	118	TrialSecondaParte	faceless	facmod	2	590	1
41	25	Male	Right	A	31/08/2017	11:59:59	119	TrialSecondaParte	distantly	facet	0	854	2
41	25	Male	Right	A	31/08/2017	11:59:59	120	TrialSecondaParte	tamponade	ruffy	2	984	1
41	25	Male	Right	A	31/08/2017	11:59:59	121	TrialSecondaParte	farcical	farxy	2	615	1
41	25	Male	Right	A	31/08/2017	11:59:59	122	TrialSecondaParte	scanner	rast	2	1087	1
41	25	Male	Right	A	31/08/2017	11:59:59	123	TrialSecondaParte	loyally	buzz	0	678	2
41	25	Male	Right	A	31/08/2017	11:59:59	124	TrialSecondaParte	illicit	ilkis	2	583	1
41	25	Male	Right	A	31/08/2017	11:59:59	125	TrialSecondaParte	mourner	mourn	1	769	2
41	25	Male	Right	A	31/08/2017	11:59:59	126	TrialSecondaParte	difference	difrol	2	720	1
41	25	Male	Right	A	31/08/2017	11:59:59	127	TrialSecondaParte	selfless	audit	0	704	2
41	25	Male	Right	A	31/08/2017	11:59:59	128	TrialSecondaParte	gastric	waser	2	818	1
41	25	Male	Right	A	31/08/2017	11:59:59	129	TrialSecondaParte	stirrup	stir	1	706	2
41	25	Male	Right	A	31/08/2017	11:59:59	130	TrialSecondaParte	sensuous	secly	2	691	1
41	25	Male	Right	A	31/08/2017	11:59:59	131	TrialSecondaParte	fixture	strul	2	785	1
41	25	Male	Right	A	31/08/2017	11:59:59	132	TrialSecondaParte	steadily	ration	0	1127	1
41	25	Male	Right	A	31/08/2017	11:59:59	133	TrialSecondaParte	signet	sign	1	755	2
41	25	Male	Right	A	31/08/2017	11:59:59	134	TrialSecondaParte	absurdity	plain	0	596	2
41	25	Male	Right	A	31/08/2017	11:59:59	135	TrialSecondaParte	edible	esigh	2	828	1
41	25	Male	Right	A	31/08/2017	11:59:59	136	TrialSecondaParte	service	count	0	675	2
41	25	Male	Right	A	31/08/2017	11:59:59	137	TrialSecondaParte	fleshy	flesh	1	746	2
41	25	Male	Right	A	31/08/2017	11:59:59	138	TrialSecondaParte	awaken	tood	2	740	1
41	25	Male	Right	A	31/08/2017	11:59:59	139	TrialSecondaParte	inherent	inpock	2	821	1
41	25	Male	Right	A	31/08/2017	11:59:59	140	TrialSecondaParte	genetic	genth	2	698	1
41	25	Male	Right	A	31/08/2017	11:59:59	141	TrialSecondaParte	veteran	venic	2	721	1
41	25	Male	Right	A	31/08/2017	11:59:59	142	TrialSecondaParte	treaty	treat	1	614	2
41	25	Male	Right	A	31/08/2017	11:59:59	143	TrialSecondaParte	clanger	spant	2	670	1
41	25	Male	Right	A	31/08/2017	11:59:59	144	TrialSecondaParte	bubble	glef	2	642	1
41	25	Male	Right	A	31/08/2017	11:59:59	145	TrialSecondaParte	epileptic	candid	0	654	2
41	25	Male	Right	A	31/08/2017	11:59:59	146	TrialSecondaParte	button	butt	1	593	2
41	25	Male	Right	A	31/08/2017	11:59:59	147	TrialSecondaParte	dysentery	ranin	2	627	1
41	25	Male	Right	A	31/08/2017	11:59:59	148	TrialSecondaParte	ceramic	cerbs	2	725	1
41	25	Male	Right	A	31/08/2017	11:59:59	149	TrialSecondaParte	narrowly	scull	0	929	1
41	25	Male	Right	A	31/08/2017	11:59:59	150	TrialSecondaParte	itinerary	itiner	2	831	1
41	25	Male	Right	A	31/08/2017	11:59:59	151	TrialTerzaParte	jetty	kuty	2	738	1
41	25	Male	Right	A	31/08/2017	11:59:59	152	TrialTerzaParte	lively	licey	2	731	1
41	25	Male	Right	A	31/08/2017	11:59:59	153	TrialTerzaParte	opposition	nunfy	2	614	1
41	25	Male	Right	A	31/08/2017	11:59:59	154	TrialTerzaParte	child	sild	2	629	1
41	25	Male	Right	A	31/08/2017	11:59:59	155	TrialTerzaParte	timidly	arse	0	640	2
41	25	Male	Right	A	31/08/2017	11:59:59	156	TrialTerzaParte	neutron	whese	2	729	1
41	25	Male	Right	A	31/08/2017	11:59:59	157	TrialTerzaParte	addition	employ	0	689	2
41	25	Male	Right	A	31/08/2017	11:59:59	158	TrialTerzaParte	fizzle	fizz	1	640	1
41	25	Male	Right	A	31/08/2017	11:59:59	159	TrialTerzaParte	rebound	cous	2	788	1
41	25	Male	Right	A	31/08/2017	11:59:59	160	TrialTerzaParte	twinkle	twin	1	576	2
41	25	Male	Right	A	31/08/2017	11:59:59	161	TrialTerzaParte	defector	stamp	0	601	2
41	25	Male	Right	A	31/08/2017	11:59:59	162	TrialTerzaParte	situation	govern	0	699	2
41	25	Male	Right	A	31/08/2017	11:59:59	163	TrialTerzaParte	lethal	lerd	2	542	1
41	25	Male	Right	A	31/08/2017	11:59:59	164	TrialTerzaParte	postage	poth	2	716	1
41	25	Male	Right	A	31/08/2017	11:59:59	165	TrialTerzaParte	analogy	anopy	2	748	1
41	25	Male	Right	A	31/08/2017	11:59:59	166	TrialTerzaParte	revolutionary	intern	0	606	2
41	25	Male	Right	A	31/08/2017	11:59:59	167	TrialTerzaParte	piratical	pirent	2	657	1
41	25	Male	Right	A	31/08/2017	11:59:59	168	TrialTerzaParte	abstract	fewtu	2	622	1
41	25	Male	Right	A	31/08/2017	11:59:59	169	TrialTerzaParte	masonry	dream	0	627	2
41	25	Male	Right	A	31/08/2017	11:59:59	170	TrialTerzaParte	swotting	chuly	2	555	1
41	25	Male	Right	A	31/08/2017	11:59:59	171	TrialTerzaParte	equally	comma	0	566	2
41	25	Male	Right	A	31/08/2017	11:59:59	172	TrialTerzaParte	graphic	blamp	2	655	1
41	25	Male	Right	A	31/08/2017	11:59:59	173	TrialTerzaParte	fisher	fims	2	914	1
41	25	Male	Right	A	31/08/2017	11:59:59	174	TrialTerzaParte	dweller	crypt	0	719	2
41	25	Male	Right	A	31/08/2017	11:59:59	175	TrialTerzaParte	gaiety	harse	2	592	2
41	25	Male	Right	A	31/08/2017	11:59:59	176	TrialTerzaParte	sight	sigh	1	725	2
41	25	Male	Right	A	31/08/2017	11:59:59	177	TrialTerzaParte	passel	turp	2	624	1
41	25	Male	Right	A	31/08/2017	11:59:59	178	TrialTerzaParte	public	pub	1	777	2
41	25	Male	Right	A	31/08/2017	11:59:59	179	TrialTerzaParte	yardage	yage	2	595	1
41	25	Male	Right	A	31/08/2017	11:59:59	180	TrialTerzaParte	vicarage	erupt	0	612	2
41	25	Male	Right	A	31/08/2017	11:59:59	181	TrialTerzaParte	acidic	acid	1	688	2
41	25	Male	Right	A	31/08/2017	11:59:59	182	TrialTerzaParte	hydration	povic	2	669	1
41	25	Male	Right	A	31/08/2017	11:59:59	183	TrialTerzaParte	snobby	snool	2	732	1
41	25	Male	Right	A	31/08/2017	11:59:59	184	TrialTerzaParte	crooked	crook	1	880	2
41	25	Male	Right	A	31/08/2017	11:59:59	185	TrialTerzaParte	enactment	cloud	0	636	2
41	25	Male	Right	A	31/08/2017	11:59:59	186	TrialTerzaParte	exemption	renew	0	725	2
41	25	Male	Right	A	31/08/2017	11:59:59	187	TrialTerzaParte	widowed	widow	1	753	2
41	25	Male	Right	A	31/08/2017	11:59:59	188	TrialTerzaParte	ample	amp	1	707	1
41	25	Male	Right	A	31/08/2017	11:59:59	189	TrialTerzaParte	engage	yurd	2	616	1
41	25	Male	Right	A	31/08/2017	11:59:59	190	TrialTerzaParte	friar	blyr	2	693	1
41	25	Male	Right	A	31/08/2017	11:59:59	191	TrialTerzaParte	forceps	force	1	633	2
41	25	Male	Right	A	31/08/2017	11:59:59	192	TrialTerzaParte	advisory	advock	2	779	1
41	25	Male	Right	A	31/08/2017	11:59:59	193	TrialTerzaParte	tendency	critic	0	627	2
41	25	Male	Right	A	31/08/2017	11:59:59	194	TrialTerzaParte	stressful	abgaid	2	640	1
41	25	Male	Right	A	31/08/2017	11:59:59	195	TrialTerzaParte	vigilant	vigan	2	727	1
41	25	Male	Right	A	31/08/2017	11:59:59	196	TrialTerzaParte	palpably	amen	0	934	2
41	25	Male	Right	A	31/08/2017	11:59:59	197	TrialTerzaParte	believer	append	0	683	2
41	25	Male	Right	A	31/08/2017	11:59:59	198	TrialTerzaParte	gluteal	abtle	2	631	1
41	25	Male	Right	A	31/08/2017	11:59:59	199	TrialTerzaParte	helmet	helm	1	609	2
41	25	Male	Right	A	31/08/2017	11:59:59	200	TrialTerzaParte	weird	weir	1	542	1
41	25	Male	Right	A	31/08/2017	11:59:59	201	TrialTerzaParte	trashy	rell	2	580	1
41	25	Male	Right	A	31/08/2017	11:59:59	202	TrialTerzaParte	calmness	artist	0	625	2
41	25	Male	Right	A	31/08/2017	11:59:59	203	TrialTerzaParte	stroke	cligh	2	526	1
41	25	Male	Right	A	31/08/2017	11:59:59	204	TrialTerzaParte	turmoil	furm	2	614	1
41	25	Male	Right	A	31/08/2017	11:59:59	205	TrialTerzaParte	golfer	golf	1	625	2
41	25	Male	Right	A	31/08/2017	11:59:59	206	TrialTerzaParte	abstain	abter	2	532	1
41	25	Male	Right	A	31/08/2017	11:59:59	207	TrialTerzaParte	sovereign	sovign	2	664	1
41	25	Male	Right	A	31/08/2017	11:59:59	208	TrialTerzaParte	daring	dalig	2	620	1
41	25	Male	Right	A	31/08/2017	11:59:59	209	TrialTerzaParte	production	depart	0	710	2
41	25	Male	Right	A	31/08/2017	11:59:59	210	TrialTerzaParte	vertical	verks	2	540	1
41	25	Male	Right	A	31/08/2017	11:59:59	211	TrialTerzaParte	whisker	whisk	1	626	2
41	25	Male	Right	A	31/08/2017	11:59:59	212	TrialTerzaParte	watcher	angel	0	799	2
41	25	Male	Right	A	31/08/2017	11:59:59	213	TrialTerzaParte	feathery	drunk	0	591	2
41	25	Male	Right	A	31/08/2017	11:59:59	214	TrialTerzaParte	nincompoops	ninpoo	2	609	1
41	25	Male	Right	A	31/08/2017	11:59:59	215	TrialTerzaParte	medical	surf	0	625	2
41	25	Male	Right	A	31/08/2017	11:59:59	216	TrialTerzaParte	nymphet	nymph	1	661	2
41	25	Male	Right	A	31/08/2017	11:59:59	217	TrialTerzaParte	bearded	beard	1	590	2
41	25	Male	Right	A	31/08/2017	11:59:59	218	TrialTerzaParte	broiler	plum	0	671	2
41	25	Male	Right	A	31/08/2017	11:59:59	219	TrialTerzaParte	alcoholic	fruit	0	612	2
41	25	Male	Right	A	31/08/2017	11:59:59	220	TrialTerzaParte	tackler	lerf	2	718	1
41	25	Male	Right	A	31/08/2017	11:59:59	221	TrialTerzaParte	guilty	guilt	1	865	2
41	25	Male	Right	A	31/08/2017	11:59:59	222	TrialTerzaParte	gluten	glut	1	1228	1
41	25	Male	Right	A	31/08/2017	11:59:59	223	TrialTerzaParte	criminal	huare	2	687	1
41	25	Male	Right	A	31/08/2017	11:59:59	224	TrialTerzaParte	poetry	poet	1	588	2
41	25	Male	Right	A	31/08/2017	11:59:59	225	TrialTerzaParte	shunt	shun	1	1087	1
41	25	Male	Right	A	31/08/2017	11:59:59	226	TrialQuartaParte	freeze	free	1	678	2
41	25	Male	Right	A	31/08/2017	11:59:59	227	TrialQuartaParte	bomber	bomb	1	683	2
41	25	Male	Right	A	31/08/2017	11:59:59	228	TrialQuartaParte	crafty	craft	1	623	2
41	25	Male	Right	A	31/08/2017	11:59:59	229	TrialQuartaParte	deficit	dety	2	625	1
41	25	Male	Right	A	31/08/2017	11:59:59	230	TrialQuartaParte	galaxy	gala	1	736	2
41	25	Male	Right	A	31/08/2017	11:59:59	231	TrialQuartaParte	biscuit	bist	2	574	1
41	25	Male	Right	A	31/08/2017	11:59:59	232	TrialQuartaParte	maximum	suyte	2	514	1
41	25	Male	Right	A	31/08/2017	11:59:59	233	TrialQuartaParte	actually	quest	0	564	2
41	25	Male	Right	A	31/08/2017	11:59:59	234	TrialQuartaParte	moisture	stub	0	1108	1
41	25	Male	Right	A	31/08/2017	11:59:59	235	TrialQuartaParte	mosaic	mip	2	651	1
41	25	Male	Right	A	31/08/2017	11:59:59	236	TrialQuartaParte	penguin	phorb	2	710	1
41	25	Male	Right	A	31/08/2017	11:59:59	237	TrialQuartaParte	risky	risk	1	625	2
41	25	Male	Right	A	31/08/2017	11:59:59	238	TrialQuartaParte	composer	alarm	0	646	2
41	25	Male	Right	A	31/08/2017	11:59:59	239	TrialQuartaParte	marshy	marsh	1	755	2
41	25	Male	Right	A	31/08/2017	11:59:59	240	TrialQuartaParte	sniper	snip	1	706	1
41	25	Male	Right	A	31/08/2017	11:59:59	241	TrialQuartaParte	tract	trep	2	627	1
41	25	Male	Right	A	31/08/2017	11:59:59	242	TrialQuartaParte	lectureship	parent	0	664	2
41	25	Male	Right	A	31/08/2017	11:59:59	243	TrialQuartaParte	sudden	verty	2	751	1
41	25	Male	Right	A	31/08/2017	11:59:59	244	TrialQuartaParte	friendly	north	0	680	2
41	25	Male	Right	A	31/08/2017	11:59:59	245	TrialQuartaParte	justify	extra	0	618	2
41	25	Male	Right	A	31/08/2017	11:59:59	246	TrialQuartaParte	putty	putt	1	824	2
41	25	Male	Right	A	31/08/2017	11:59:59	247	TrialQuartaParte	dreadful	phone	0	617	2
41	25	Male	Right	A	31/08/2017	11:59:59	248	TrialQuartaParte	booklet	text	0	637	2
41	25	Male	Right	A	31/08/2017	11:59:59	249	TrialQuartaParte	sleet	slit	2	797	2
41	25	Male	Right	A	31/08/2017	11:59:59	250	TrialQuartaParte	gaseous	stilt	0	757	1
41	25	Male	Right	A	31/08/2017	11:59:59	251	TrialQuartaParte	killer	lalf	2	719	1
41	25	Male	Right	A	31/08/2017	11:59:59	252	TrialQuartaParte	unspoilt	nalky	2	541	1
41	25	Male	Right	A	31/08/2017	11:59:59	253	TrialQuartaParte	rumbling	ether	0	801	1
41	25	Male	Right	A	31/08/2017	11:59:59	254	TrialQuartaParte	fatal	fids	2	607	1
41	25	Male	Right	A	31/08/2017	11:59:59	255	TrialQuartaParte	anaesthetic	invest	0	566	2
41	25	Male	Right	A	31/08/2017	11:59:59	256	TrialQuartaParte	foundry	brisk	0	701	2
41	25	Male	Right	A	31/08/2017	11:59:59	257	TrialQuartaParte	scrooge	plich	2	717	1
41	25	Male	Right	A	31/08/2017	11:59:59	258	TrialQuartaParte	upstart	pumy	2	740	1
41	25	Male	Right	A	31/08/2017	11:59:59	259	TrialQuartaParte	smelly	thuly	2	614	1
41	25	Male	Right	A	31/08/2017	11:59:59	260	TrialQuartaParte	benignly	basil	0	533	1
41	25	Male	Right	A	31/08/2017	11:59:59	261	TrialQuartaParte	unique	unzed	2	643	1
41	25	Male	Right	A	31/08/2017	11:59:59	262	TrialQuartaParte	religious	sisby	2	527	1
41	25	Male	Right	A	31/08/2017	11:59:59	263	TrialQuartaParte	airtight	aith	2	587	1
41	25	Male	Right	A	31/08/2017	11:59:59	264	TrialQuartaParte	brandy	brand	1	552	2
41	25	Male	Right	A	31/08/2017	11:59:59	265	TrialQuartaParte	hatchery	fighy	2	555	1
41	25	Male	Right	A	31/08/2017	11:59:59	266	TrialQuartaParte	smuggle	smug	1	674	2
41	25	Male	Right	A	31/08/2017	11:59:59	267	TrialQuartaParte	geisha	crove	2	747	1
41	25	Male	Right	A	31/08/2017	11:59:59	268	TrialQuartaParte	haulier	halfe	2	744	1
41	25	Male	Right	A	31/08/2017	11:59:59	269	TrialQuartaParte	fanatic	fanty	2	613	1
41	25	Male	Right	A	31/08/2017	11:59:59	270	TrialQuartaParte	toaster	toast	1	604	2
41	25	Male	Right	A	31/08/2017	11:59:59	271	TrialQuartaParte	perhaps	again	0	680	2
41	25	Male	Right	A	31/08/2017	11:59:59	272	TrialQuartaParte	developer	court	0	703	2
41	25	Male	Right	A	31/08/2017	11:59:59	273	TrialQuartaParte	quartz	quart	1	1119	1
41	25	Male	Right	A	31/08/2017	11:59:59	274	TrialQuartaParte	jauntily	scald	0	841	1
41	25	Male	Right	A	31/08/2017	11:59:59	275	TrialQuartaParte	united	unit	1	670	2
41	25	Male	Right	A	31/08/2017	11:59:59	276	TrialQuartaParte	armoury	arwor	2	635	1
41	25	Male	Right	A	31/08/2017	11:59:59	277	TrialQuartaParte	traffic	trepy	2	584	1
41	25	Male	Right	A	31/08/2017	11:59:59	278	TrialQuartaParte	education	educon	2	701	1
41	25	Male	Right	A	31/08/2017	11:59:59	279	TrialQuartaParte	extremism	liquid	0	609	2
41	25	Male	Right	A	31/08/2017	11:59:59	280	TrialQuartaParte	culprit	cuti	2	596	1
41	25	Male	Right	A	31/08/2017	11:59:59	281	TrialQuartaParte	struggled	neigh	0	547	1
41	25	Male	Right	A	31/08/2017	11:59:59	282	TrialQuartaParte	obviously	secret	0	561	2
41	25	Male	Right	A	31/08/2017	11:59:59	283	TrialQuartaParte	trainee	train	1	489	2
41	25	Male	Right	A	31/08/2017	11:59:59	284	TrialQuartaParte	syphilis	ruar	2	616	1
41	25	Male	Right	A	31/08/2017	11:59:59	285	TrialQuartaParte	soften	soft	1	499	2
41	25	Male	Right	A	31/08/2017	11:59:59	286	TrialQuartaParte	scruffy	thick	0	670	2
41	25	Male	Right	A	31/08/2017	11:59:59	287	TrialQuartaParte	routeing	tomed	2	559	1
41	25	Male	Right	A	31/08/2017	11:59:59	288	TrialQuartaParte	chilly	chill	1	576	2
41	25	Male	Right	A	31/08/2017	11:59:59	289	TrialQuartaParte	trumpet	trump	1	738	2
41	25	Male	Right	A	31/08/2017	11:59:59	290	TrialQuartaParte	raffle	rafel	2	580	1
41	25	Male	Right	A	31/08/2017	11:59:59	291	TrialQuartaParte	desert	dert	2	592	1
41	25	Male	Right	A	31/08/2017	11:59:59	292	TrialQuartaParte	physical	react	0	619	2
41	25	Male	Right	A	31/08/2017	11:59:59	293	TrialQuartaParte	signal	quir	2	555	1
41	25	Male	Right	A	31/08/2017	11:59:59	294	TrialQuartaParte	summit	sutty	2	564	1
41	25	Male	Right	A	31/08/2017	11:59:59	295	TrialQuartaParte	passant	pasks	2	604	1
41	25	Male	Right	A	31/08/2017	11:59:59	296	TrialQuartaParte	snobbery	snotty	2	490	1
41	25	Male	Right	A	31/08/2017	11:59:59	297	TrialQuartaParte	message	rosty	2	526	1
41	25	Male	Right	A	31/08/2017	11:59:59	298	TrialQuartaParte	reliable	blidar	2	776	1
41	25	Male	Right	A	31/08/2017	11:59:59	299	TrialQuartaParte	early	earl	1	959	1
41	25	Male	Right	A	31/08/2017	11:59:59	300	TrialQuartaParte	kinetic	kinse	2	630	1
