Subject	Age	Gender	Handedness	Rotation	Data	OraStart	TrialCount	TrialType	Prime	target	Relatedness	rt	Resp
84	23	Female	Right	A	16/09/2017	12:50:11	1	Prova	wellness	well	4	720	2
84	23	Female	Right	A	16/09/2017	12:50:11	2	Prova	homeless	home	4	476	2
84	23	Female	Right	A	16/09/2017	12:50:11	3	Prova	tricky	tricker	4	697	2
84	23	Female	Right	A	16/09/2017	12:50:11	4	Prova	character	char	4	696	1
84	23	Female	Right	A	16/09/2017	12:50:11	5	Prova	translater	pulter	4	627	1
84	23	Female	Right	A	16/09/2017	12:50:11	6	Prova2	escape	exat	4	1323	1
84	23	Female	Right	A	16/09/2017	12:50:11	7	Prova2	investigator	invest	4	801	2
84	23	Female	Right	A	16/09/2017	12:50:11	8	Prova2	examiner	exam	4	910	1
84	23	Female	Right	A	16/09/2017	12:50:11	9	Prova2	topic	top	4	487	2
84	23	Female	Right	A	16/09/2017	12:50:11	1	Warmup	unpack	pack	5	599	2
84	23	Female	Right	A	16/09/2017	12:50:11	2	Warmup	tartare	tariff	5	601	1
84	23	Female	Right	A	16/09/2017	12:50:11	3	Warmup	cowrie	sturms	5	619	1
84	23	Female	Right	A	16/09/2017	12:50:11	4	Warmup	cortex	newbie	5	879	1
84	23	Female	Right	A	16/09/2017	12:50:11	5	Warmup	pullma	pulm	5	767	1
84	23	Female	Right	A	16/09/2017	12:50:11	1	TrialPrimaParte	education	educon	2	794	1
84	23	Female	Right	A	16/09/2017	12:50:11	2	TrialPrimaParte	power	mord	2	794	1
84	23	Female	Right	A	16/09/2017	12:50:11	3	TrialPrimaParte	centimetres	censar	2	778	1
84	23	Female	Right	A	16/09/2017	12:50:11	4	TrialPrimaParte	mosaic	mip	2	729	1
84	23	Female	Right	A	16/09/2017	12:50:11	5	TrialPrimaParte	agreement	agree	1	616	2
84	23	Female	Right	A	16/09/2017	12:50:11	6	TrialPrimaParte	twelfth	smug	0	734	1
84	23	Female	Right	A	16/09/2017	12:50:11	7	TrialPrimaParte	bourbon	boun	2	685	1
84	23	Female	Right	A	16/09/2017	12:50:11	8	TrialPrimaParte	passel	turp	2	705	1
84	23	Female	Right	A	16/09/2017	12:50:11	9	TrialPrimaParte	silken	tuft	0	764	1
84	23	Female	Right	A	16/09/2017	12:50:11	10	TrialPrimaParte	cuffs	glad	0	537	2
84	23	Female	Right	A	16/09/2017	12:50:11	11	TrialPrimaParte	syphilis	ruar	2	572	1
84	23	Female	Right	A	16/09/2017	12:50:11	12	TrialPrimaParte	hydration	povic	2	554	1
84	23	Female	Right	A	16/09/2017	12:50:11	13	TrialPrimaParte	kingdom	adopt	0	560	2
84	23	Female	Right	A	16/09/2017	12:50:11	14	TrialPrimaParte	extract	extra	1	650	2
84	23	Female	Right	A	16/09/2017	12:50:11	15	TrialPrimaParte	lesser	twit	0	622	2
84	23	Female	Right	A	16/09/2017	12:50:11	16	TrialPrimaParte	moulder	moure	2	516	1
84	23	Female	Right	A	16/09/2017	12:50:11	17	TrialPrimaParte	sovereign	sovign	2	654	1
84	23	Female	Right	A	16/09/2017	12:50:11	18	TrialPrimaParte	trashy	rell	2	651	1
84	23	Female	Right	A	16/09/2017	12:50:11	19	TrialPrimaParte	crummy	meye	2	632	1
84	23	Female	Right	A	16/09/2017	12:50:11	20	TrialPrimaParte	gastric	waser	2	1130	2
84	23	Female	Right	A	16/09/2017	12:50:11	21	TrialPrimaParte	maximum	suyte	2	535	1
84	23	Female	Right	A	16/09/2017	12:50:11	22	TrialPrimaParte	plonking	pluny	2	605	1
84	23	Female	Right	A	16/09/2017	12:50:11	23	TrialPrimaParte	brutal	helm	0	680	1
84	23	Female	Right	A	16/09/2017	12:50:11	24	TrialPrimaParte	vainly	craft	0	586	2
84	23	Female	Right	A	16/09/2017	12:50:11	25	TrialPrimaParte	employer	employ	1	924	2
84	23	Female	Right	A	16/09/2017	12:50:11	26	TrialPrimaParte	thinly	golf	0	492	2
84	23	Female	Right	A	16/09/2017	12:50:11	27	TrialPrimaParte	gluteal	abtle	2	680	1
84	23	Female	Right	A	16/09/2017	12:50:11	28	TrialPrimaParte	eruption	erupt	1	709	2
84	23	Female	Right	A	16/09/2017	12:50:11	29	TrialPrimaParte	buoyant	stir	0	586	1
84	23	Female	Right	A	16/09/2017	12:50:11	30	TrialPrimaParte	misty	stun	0	733	2
84	23	Female	Right	A	16/09/2017	12:50:11	31	TrialPrimaParte	jetty	kuty	2	747	1
84	23	Female	Right	A	16/09/2017	12:50:11	32	TrialPrimaParte	oddity	squaw	0	1191	1
84	23	Female	Right	A	16/09/2017	12:50:11	33	TrialPrimaParte	electron	elect	1	589	2
84	23	Female	Right	A	16/09/2017	12:50:11	34	TrialPrimaParte	snobbery	snotty	2	620	1
84	23	Female	Right	A	16/09/2017	12:50:11	35	TrialPrimaParte	adviser	flick	0	544	2
84	23	Female	Right	A	16/09/2017	12:50:11	36	TrialPrimaParte	firmly	heave	0	549	2
84	23	Female	Right	A	16/09/2017	12:50:11	37	TrialPrimaParte	criminal	huare	2	648	1
84	23	Female	Right	A	16/09/2017	12:50:11	38	TrialPrimaParte	reaction	react	1	493	2
84	23	Female	Right	A	16/09/2017	12:50:11	39	TrialPrimaParte	passant	pasks	2	528	1
84	23	Female	Right	A	16/09/2017	12:50:11	40	TrialPrimaParte	widen	amp	0	535	1
84	23	Female	Right	A	16/09/2017	12:50:11	41	TrialPrimaParte	northern	north	1	514	2
84	23	Female	Right	A	16/09/2017	12:50:11	42	TrialPrimaParte	scalding	scald	1	615	1
84	23	Female	Right	A	16/09/2017	12:50:11	43	TrialPrimaParte	legacy	lecy	2	570	1
84	23	Female	Right	A	16/09/2017	12:50:11	44	TrialPrimaParte	fabulous	smaply	2	504	1
84	23	Female	Right	A	16/09/2017	12:50:11	45	TrialPrimaParte	fanatic	fanty	2	459	2
84	23	Female	Right	A	16/09/2017	12:50:11	46	TrialPrimaParte	facetious	facet	1	522	1
84	23	Female	Right	A	16/09/2017	12:50:11	47	TrialPrimaParte	kinetic	kinse	2	512	1
84	23	Female	Right	A	16/09/2017	12:50:11	48	TrialPrimaParte	brisket	brisk	1	545	2
84	23	Female	Right	A	16/09/2017	12:50:11	49	TrialPrimaParte	cranky	crony	2	629	1
84	23	Female	Right	A	16/09/2017	12:50:11	50	TrialPrimaParte	bridal	glut	0	599	1
84	23	Female	Right	A	16/09/2017	12:50:11	51	TrialPrimaParte	fleeting	fleet	1	430	2
84	23	Female	Right	A	16/09/2017	12:50:11	52	TrialPrimaParte	safely	brand	0	598	2
84	23	Female	Right	A	16/09/2017	12:50:11	53	TrialPrimaParte	dragon	dron	2	548	1
84	23	Female	Right	A	16/09/2017	12:50:11	54	TrialPrimaParte	blush	blif	2	551	1
84	23	Female	Right	A	16/09/2017	12:50:11	55	TrialPrimaParte	opposition	nunfy	2	589	1
84	23	Female	Right	A	16/09/2017	12:50:11	56	TrialPrimaParte	upstart	pumy	2	682	1
84	23	Female	Right	A	16/09/2017	12:50:11	57	TrialPrimaParte	desert	dert	2	542	1
84	23	Female	Right	A	16/09/2017	12:50:11	58	TrialPrimaParte	itchy	shun	0	425	1
84	23	Female	Right	A	16/09/2017	12:50:11	59	TrialPrimaParte	socialiser	flepity	2	665	1
84	23	Female	Right	A	16/09/2017	12:50:11	60	TrialPrimaParte	pummel	syly	2	453	1
84	23	Female	Right	A	16/09/2017	12:50:11	61	TrialPrimaParte	weekly	rabbi	0	599	1
84	23	Female	Right	A	16/09/2017	12:50:11	62	TrialPrimaParte	hatchery	fighy	2	719	1
84	23	Female	Right	A	16/09/2017	12:50:11	63	TrialPrimaParte	dysentery	ranin	2	765	1
84	23	Female	Right	A	16/09/2017	12:50:11	64	TrialPrimaParte	faceless	facmod	2	980	1
84	23	Female	Right	A	16/09/2017	12:50:11	65	TrialPrimaParte	alarming	alarm	1	523	2
84	23	Female	Right	A	16/09/2017	12:50:11	66	TrialPrimaParte	unspoilt	nalky	2	504	1
84	23	Female	Right	A	16/09/2017	12:50:11	67	TrialPrimaParte	dusty	dusy	2	635	1
84	23	Female	Right	A	16/09/2017	12:50:11	68	TrialPrimaParte	postage	poth	2	569	1
84	23	Female	Right	A	16/09/2017	12:50:11	69	TrialPrimaParte	piratical	pirent	2	629	1
84	23	Female	Right	A	16/09/2017	12:50:11	70	TrialPrimaParte	routeing	tomed	2	467	1
84	23	Female	Right	A	16/09/2017	12:50:11	71	TrialPrimaParte	prosecution	leler	2	649	1
84	23	Female	Right	A	16/09/2017	12:50:11	72	TrialPrimaParte	legendary	legend	1	442	2
84	23	Female	Right	A	16/09/2017	12:50:11	73	TrialPrimaParte	lessen	bomb	0	502	2
84	23	Female	Right	A	16/09/2017	12:50:11	74	TrialPrimaParte	twisty	jerk	0	661	2
84	23	Female	Right	A	16/09/2017	12:50:11	75	TrialPrimaParte	fishy	putt	0	532	1
84	23	Female	Right	A	16/09/2017	12:50:11	76	TrialSecondaParte	thorny	marsh	0	598	1
84	23	Female	Right	A	16/09/2017	12:50:11	77	TrialSecondaParte	thinker	beard	0	618	2
84	23	Female	Right	A	16/09/2017	12:50:11	78	TrialSecondaParte	signal	quir	2	606	1
84	23	Female	Right	A	16/09/2017	12:50:11	79	TrialSecondaParte	scullery	scull	1	701	1
84	23	Female	Right	A	16/09/2017	12:50:11	80	TrialSecondaParte	candidacy	candid	1	459	2
84	23	Female	Right	A	16/09/2017	12:50:11	81	TrialSecondaParte	sudden	verty	2	526	1
84	23	Female	Right	A	16/09/2017	12:50:11	82	TrialSecondaParte	sleet	slit	2	694	1
84	23	Female	Right	A	16/09/2017	12:50:11	83	TrialSecondaParte	penguin	phorb	2	573	1
84	23	Female	Right	A	16/09/2017	12:50:11	84	TrialSecondaParte	inhibitory	inhibit	1	520	2
84	23	Female	Right	A	16/09/2017	12:50:11	85	TrialSecondaParte	raffle	rafel	2	528	1
84	23	Female	Right	A	16/09/2017	12:50:11	86	TrialSecondaParte	against	again	1	470	2
84	23	Female	Right	A	16/09/2017	12:50:11	87	TrialSecondaParte	stressful	abgaid	2	524	1
84	23	Female	Right	A	16/09/2017	12:50:11	88	TrialSecondaParte	stilted	stilt	1	614	1
84	23	Female	Right	A	16/09/2017	12:50:11	89	TrialSecondaParte	grouse	gruf	2	476	2
84	23	Female	Right	A	16/09/2017	12:50:11	90	TrialSecondaParte	teacher	teach	1	447	2
84	23	Female	Right	A	16/09/2017	12:50:11	91	TrialSecondaParte	floater	float	1	556	2
84	23	Female	Right	A	16/09/2017	12:50:11	92	TrialSecondaParte	daring	dalig	2	664	1
84	23	Female	Right	A	16/09/2017	12:50:11	93	TrialSecondaParte	brothel	broth	1	754	1
84	23	Female	Right	A	16/09/2017	12:50:11	94	TrialSecondaParte	armoury	arwor	2	903	1
84	23	Female	Right	A	16/09/2017	12:50:11	95	TrialSecondaParte	culprit	cuti	2	599	1
84	23	Female	Right	A	16/09/2017	12:50:11	96	TrialSecondaParte	unique	unzed	2	1797	1
84	23	Female	Right	A	16/09/2017	12:50:11	97	TrialSecondaParte	feudal	arch	0	821	2
84	23	Female	Right	A	16/09/2017	12:50:11	98	TrialSecondaParte	quieten	quiet	1	548	1
84	23	Female	Right	A	16/09/2017	12:50:11	99	TrialSecondaParte	fisher	fims	2	498	1
84	23	Female	Right	A	16/09/2017	12:50:11	100	TrialSecondaParte	message	rosty	2	716	2
84	23	Female	Right	A	16/09/2017	12:50:11	101	TrialSecondaParte	tract	trep	2	700	1
84	23	Female	Right	A	16/09/2017	12:50:11	102	TrialSecondaParte	paternal	siter	2	891	1
84	23	Female	Right	A	16/09/2017	12:50:11	103	TrialSecondaParte	amenable	amen	1	485	2
84	23	Female	Right	A	16/09/2017	12:50:11	104	TrialSecondaParte	damsel	dalp	2	526	1
84	23	Female	Right	A	16/09/2017	12:50:11	105	TrialSecondaParte	ribbon	ribed	2	781	1
84	23	Female	Right	A	16/09/2017	12:50:11	106	TrialSecondaParte	highlight	gylpo	2	609	1
84	23	Female	Right	A	16/09/2017	12:50:11	107	TrialSecondaParte	watery	cream	0	547	2
84	23	Female	Right	A	16/09/2017	12:50:11	108	TrialSecondaParte	edible	esigh	2	593	1
84	23	Female	Right	A	16/09/2017	12:50:11	109	TrialSecondaParte	friar	blyr	2	493	1
84	23	Female	Right	A	16/09/2017	12:50:11	110	TrialSecondaParte	cryptic	crypt	1	697	2
84	23	Female	Right	A	16/09/2017	12:50:11	111	TrialSecondaParte	basilisk	basil	1	783	2
84	23	Female	Right	A	16/09/2017	12:50:11	112	TrialSecondaParte	rational	ration	1	492	2
84	23	Female	Right	A	16/09/2017	12:50:11	113	TrialSecondaParte	swivel	quat	2	630	1
84	23	Female	Right	A	16/09/2017	12:50:11	114	TrialSecondaParte	phonetic	phone	1	421	2
84	23	Female	Right	A	16/09/2017	12:50:11	115	TrialSecondaParte	hourly	snip	0	553	1
84	23	Female	Right	A	16/09/2017	12:50:11	116	TrialSecondaParte	heroic	soft	0	528	2
84	23	Female	Right	A	16/09/2017	12:50:11	117	TrialSecondaParte	winger	pluck	0	724	2
84	23	Female	Right	A	16/09/2017	12:50:11	118	TrialSecondaParte	naughty	troll	0	680	2
84	23	Female	Right	A	16/09/2017	12:50:11	119	TrialSecondaParte	angelic	angel	1	519	2
84	23	Female	Right	A	16/09/2017	12:50:11	120	TrialSecondaParte	illicit	ilkis	2	487	1
84	23	Female	Right	A	16/09/2017	12:50:11	121	TrialSecondaParte	villain	villa	1	659	2
84	23	Female	Right	A	16/09/2017	12:50:11	122	TrialSecondaParte	parenthesis	parent	1	432	2
84	23	Female	Right	A	16/09/2017	12:50:11	123	TrialSecondaParte	genetic	genth	2	824	1
84	23	Female	Right	A	16/09/2017	12:50:11	124	TrialSecondaParte	awaken	tood	2	787	2
84	23	Female	Right	A	16/09/2017	12:50:11	125	TrialSecondaParte	reliable	blidar	2	674	1
84	23	Female	Right	A	16/09/2017	12:50:11	126	TrialSecondaParte	editor	plan	0	503	2
84	23	Female	Right	A	16/09/2017	12:50:11	127	TrialSecondaParte	factual	board	0	694	2
84	23	Female	Right	A	16/09/2017	12:50:11	128	TrialSecondaParte	chatter	trump	0	526	2
84	23	Female	Right	A	16/09/2017	12:50:11	129	TrialSecondaParte	ranger	view	0	634	2
84	23	Female	Right	A	16/09/2017	12:50:11	130	TrialSecondaParte	repertory	repty	2	673	1
84	23	Female	Right	A	16/09/2017	12:50:11	131	TrialSecondaParte	dealer	poet	0	589	2
84	23	Female	Right	A	16/09/2017	12:50:11	132	TrialSecondaParte	foetal	fongs	2	689	1
84	23	Female	Right	A	16/09/2017	12:50:11	133	TrialSecondaParte	pottage	posch	2	581	1
84	23	Female	Right	A	16/09/2017	12:50:11	134	TrialSecondaParte	haulier	halfe	2	802	1
84	23	Female	Right	A	16/09/2017	12:50:11	135	TrialSecondaParte	revolutionise	sivert	2	633	1
84	23	Female	Right	A	16/09/2017	12:50:11	136	TrialSecondaParte	baronet	baron	1	931	2
84	23	Female	Right	A	16/09/2017	12:50:11	137	TrialSecondaParte	abstract	fewtu	2	504	1
84	23	Female	Right	A	16/09/2017	12:50:11	138	TrialSecondaParte	oxygenate	oxygen	1	625	2
84	23	Female	Right	A	16/09/2017	12:50:11	139	TrialSecondaParte	killer	lalf	2	577	1
84	23	Female	Right	A	16/09/2017	12:50:11	140	TrialSecondaParte	religious	sisby	2	637	1
84	23	Female	Right	A	16/09/2017	12:50:11	141	TrialSecondaParte	muffler	coast	0	580	2
84	23	Female	Right	A	16/09/2017	12:50:11	142	TrialSecondaParte	ninety	scrap	0	853	1
84	23	Female	Right	A	16/09/2017	12:50:11	143	TrialSecondaParte	artistry	artist	1	507	2
84	23	Female	Right	A	16/09/2017	12:50:11	144	TrialSecondaParte	greenery	green	1	547	2
84	23	Female	Right	A	16/09/2017	12:50:11	145	TrialSecondaParte	prayer	butt	0	855	1
84	23	Female	Right	A	16/09/2017	12:50:11	146	TrialSecondaParte	tamponade	ruffy	2	693	1
84	23	Female	Right	A	16/09/2017	12:50:11	147	TrialSecondaParte	splinter	splint	1	697	1
84	23	Female	Right	A	16/09/2017	12:50:11	148	TrialSecondaParte	country	count	1	551	2
84	23	Female	Right	A	16/09/2017	12:50:11	149	TrialSecondaParte	acreage	acre	1	592	1
84	23	Female	Right	A	16/09/2017	12:50:11	150	TrialSecondaParte	original	orive	2	614	1
84	23	Female	Right	A	16/09/2017	12:50:11	151	TrialTerzaParte	scanner	rast	2	899	1
84	23	Female	Right	A	16/09/2017	12:50:11	152	TrialTerzaParte	vivacious	vicis	2	643	1
84	23	Female	Right	A	16/09/2017	12:50:11	153	TrialTerzaParte	portal	balp	2	584	1
84	23	Female	Right	A	16/09/2017	12:50:11	154	TrialTerzaParte	touchy	fizz	0	656	1
84	23	Female	Right	A	16/09/2017	12:50:11	155	TrialTerzaParte	colonel	colon	1	600	2
84	23	Female	Right	A	16/09/2017	12:50:11	156	TrialTerzaParte	fatal	fids	2	715	1
84	23	Female	Right	A	16/09/2017	12:50:11	157	TrialTerzaParte	rebound	cous	2	748	2
84	23	Female	Right	A	16/09/2017	12:50:11	158	TrialTerzaParte	tackler	lerf	2	589	1
84	23	Female	Right	A	16/09/2017	12:50:11	159	TrialTerzaParte	asterix	cret	2	623	1
84	23	Female	Right	A	16/09/2017	12:50:11	160	TrialTerzaParte	surgeon	surge	1	671	2
84	23	Female	Right	A	16/09/2017	12:50:11	161	TrialTerzaParte	glossary	gloss	1	578	2
84	23	Female	Right	A	16/09/2017	12:50:11	162	TrialTerzaParte	fibrosis	shuar	2	468	1
84	23	Female	Right	A	16/09/2017	12:50:11	163	TrialTerzaParte	yardage	yage	2	623	1
84	23	Female	Right	A	16/09/2017	12:50:11	164	TrialTerzaParte	filmy	plus	0	848	1
84	23	Female	Right	A	16/09/2017	12:50:11	165	TrialTerzaParte	lethal	lerd	2	712	1
84	23	Female	Right	A	16/09/2017	12:50:11	166	TrialTerzaParte	frosty	sign	0	518	2
84	23	Female	Right	A	16/09/2017	12:50:11	167	TrialTerzaParte	investigate	invest	1	477	2
84	23	Female	Right	A	16/09/2017	12:50:11	168	TrialTerzaParte	vertical	verks	2	632	1
84	23	Female	Right	A	16/09/2017	12:50:11	169	TrialTerzaParte	ceramic	cerbs	2	537	1
84	23	Female	Right	A	16/09/2017	12:50:11	170	TrialTerzaParte	coyness	whisk	0	1208	1
84	23	Female	Right	A	16/09/2017	12:50:11	171	TrialTerzaParte	keeper	gala	0	1102	2
84	23	Female	Right	A	16/09/2017	12:50:11	172	TrialTerzaParte	discern	disc	1	639	2
84	23	Female	Right	A	16/09/2017	12:50:11	173	TrialTerzaParte	vengeful	cherb	2	561	1
84	23	Female	Right	A	16/09/2017	12:50:11	174	TrialTerzaParte	merrier	merks	2	513	1
84	23	Female	Right	A	16/09/2017	12:50:11	175	TrialTerzaParte	demonstrate	demon	1	517	2
84	23	Female	Right	A	16/09/2017	12:50:11	176	TrialTerzaParte	dietary	diet	1	474	2
84	23	Female	Right	A	16/09/2017	12:50:11	177	TrialTerzaParte	farcical	farxy	2	794	1
84	23	Female	Right	A	16/09/2017	12:50:11	178	TrialTerzaParte	gaiety	harse	2	573	1
84	23	Female	Right	A	16/09/2017	12:50:11	179	TrialTerzaParte	cloudless	cloud	1	438	2
84	23	Female	Right	A	16/09/2017	12:50:11	180	TrialTerzaParte	gently	pub	0	550	1
84	23	Female	Right	A	16/09/2017	12:50:11	181	TrialTerzaParte	lively	licey	2	589	1
84	23	Female	Right	A	16/09/2017	12:50:11	182	TrialTerzaParte	rancour	brits	2	793	1
84	23	Female	Right	A	16/09/2017	12:50:11	183	TrialTerzaParte	fuselage	fuse	1	580	2
84	23	Female	Right	A	16/09/2017	12:50:11	184	TrialTerzaParte	smelly	thuly	2	597	1
84	23	Female	Right	A	16/09/2017	12:50:11	185	TrialTerzaParte	swotting	chuly	2	814	1
84	23	Female	Right	A	16/09/2017	12:50:11	186	TrialTerzaParte	beastly	widow	0	1051	2
84	23	Female	Right	A	16/09/2017	12:50:11	187	TrialTerzaParte	critical	critic	1	546	2
84	23	Female	Right	A	16/09/2017	12:50:11	188	TrialTerzaParte	yearly	acid	0	490	2
84	23	Female	Right	A	16/09/2017	12:50:11	189	TrialTerzaParte	leftist	bulb	0	677	2
84	23	Female	Right	A	16/09/2017	12:50:11	190	TrialTerzaParte	secretary	secret	1	520	2
84	23	Female	Right	A	16/09/2017	12:50:11	191	TrialTerzaParte	analogy	anopy	2	584	1
84	23	Female	Right	A	16/09/2017	12:50:11	192	TrialTerzaParte	itinerary	itiner	2	823	1
84	23	Female	Right	A	16/09/2017	12:50:11	193	TrialTerzaParte	talker	claf	2	567	1
84	23	Female	Right	A	16/09/2017	12:50:11	194	TrialTerzaParte	summit	sutty	2	601	1
84	23	Female	Right	A	16/09/2017	12:50:11	195	TrialTerzaParte	tributary	calin	2	683	1
84	23	Female	Right	A	16/09/2017	12:50:11	196	TrialTerzaParte	biscuit	bist	2	540	1
84	23	Female	Right	A	16/09/2017	12:50:11	197	TrialTerzaParte	stampede	stamp	1	481	2
84	23	Female	Right	A	16/09/2017	12:50:11	198	TrialTerzaParte	gravel	flixy	2	754	1
84	23	Female	Right	A	16/09/2017	12:50:11	199	TrialTerzaParte	arsenal	arse	1	618	2
84	23	Female	Right	A	16/09/2017	12:50:11	200	TrialTerzaParte	drunkard	drunk	1	522	2
84	23	Female	Right	A	16/09/2017	12:50:11	201	TrialTerzaParte	grueling	gruel	1	611	1
84	23	Female	Right	A	16/09/2017	12:50:11	202	TrialTerzaParte	monastery	fagor	2	627	1
84	23	Female	Right	A	16/09/2017	12:50:11	203	TrialTerzaParte	geisha	crove	2	823	1
84	23	Female	Right	A	16/09/2017	12:50:11	204	TrialTerzaParte	nincompoops	ninpoo	2	561	1
84	23	Female	Right	A	16/09/2017	12:50:11	205	TrialTerzaParte	finely	chill	0	607	2
84	23	Female	Right	A	16/09/2017	12:50:11	206	TrialTerzaParte	acutely	nymph	0	764	2
84	23	Female	Right	A	16/09/2017	12:50:11	207	TrialTerzaParte	cookery	train	0	478	2
84	23	Female	Right	A	16/09/2017	12:50:11	208	TrialTerzaParte	veteran	venic	2	556	1
84	23	Female	Right	A	16/09/2017	12:50:11	209	TrialTerzaParte	others	unit	0	566	2
84	23	Female	Right	A	16/09/2017	12:50:11	210	TrialTerzaParte	audition	audit	1	531	2
84	23	Female	Right	A	16/09/2017	12:50:11	211	TrialTerzaParte	lately	dial	0	652	1
84	23	Female	Right	A	16/09/2017	12:50:11	212	TrialTerzaParte	formal	guilt	0	1095	2
84	23	Female	Right	A	16/09/2017	12:50:11	213	TrialTerzaParte	surface	surf	1	479	2
84	23	Female	Right	A	16/09/2017	12:50:11	214	TrialTerzaParte	inventory	invent	1	466	2
84	23	Female	Right	A	16/09/2017	12:50:11	215	TrialTerzaParte	textile	text	1	449	2
84	23	Female	Right	A	16/09/2017	12:50:11	216	TrialTerzaParte	leaflet	organ	0	464	2
84	23	Female	Right	A	16/09/2017	12:50:11	217	TrialTerzaParte	tricky	shove	0	778	1
84	23	Female	Right	A	16/09/2017	12:50:11	218	TrialTerzaParte	graphic	blamp	2	1064	1
84	23	Female	Right	A	16/09/2017	12:50:11	219	TrialTerzaParte	fruitless	fruit	1	505	2
84	23	Female	Right	A	16/09/2017	12:50:11	220	TrialTerzaParte	downs	risk	0	498	2
84	23	Female	Right	A	16/09/2017	12:50:11	221	TrialTerzaParte	linkage	flion	2	618	1
84	23	Female	Right	A	16/09/2017	12:50:11	222	TrialTerzaParte	supplant	plosy	2	518	1
84	23	Female	Right	A	16/09/2017	12:50:11	223	TrialTerzaParte	spindly	tact	0	472	2
84	23	Female	Right	A	16/09/2017	12:50:11	224	TrialTerzaParte	dreamer	dream	1	356	2
84	23	Female	Right	A	16/09/2017	12:50:11	225	TrialTerzaParte	deficit	dety	2	541	1
84	23	Female	Right	A	16/09/2017	12:50:11	226	TrialQuartaParte	scrooge	plich	2	559	1
84	23	Female	Right	A	16/09/2017	12:50:11	227	TrialQuartaParte	within	earl	0	500	2
84	23	Female	Right	A	16/09/2017	12:50:11	228	TrialQuartaParte	department	depart	1	588	2
84	23	Female	Right	A	16/09/2017	12:50:11	229	TrialQuartaParte	classic	clals	2	602	1
84	23	Female	Right	A	16/09/2017	12:50:11	230	TrialQuartaParte	advisory	advock	2	977	1
84	23	Female	Right	A	16/09/2017	12:50:11	231	TrialQuartaParte	manly	weir	0	683	1
84	23	Female	Right	A	16/09/2017	12:50:11	232	TrialQuartaParte	halogen	haly	2	571	1
84	23	Female	Right	A	16/09/2017	12:50:11	233	TrialQuartaParte	traffic	trepy	2	556	1
84	23	Female	Right	A	16/09/2017	12:50:11	234	TrialQuartaParte	child	sild	2	603	1
84	23	Female	Right	A	16/09/2017	12:50:11	235	TrialQuartaParte	griffin	spoff	2	500	1
84	23	Female	Right	A	16/09/2017	12:50:11	236	TrialQuartaParte	neighbour	neigh	1	671	2
84	23	Female	Right	A	16/09/2017	12:50:11	237	TrialQuartaParte	engage	yurd	2	562	1
84	23	Female	Right	A	16/09/2017	12:50:11	238	TrialQuartaParte	utter	uls	2	652	1
84	23	Female	Right	A	16/09/2017	12:50:11	239	TrialQuartaParte	thicket	thick	1	698	2
84	23	Female	Right	A	16/09/2017	12:50:11	240	TrialQuartaParte	plaintiff	plain	1	486	2
84	23	Female	Right	A	16/09/2017	12:50:11	241	TrialQuartaParte	plastic	spaxe	2	843	1
84	23	Female	Right	A	16/09/2017	12:50:11	242	TrialQuartaParte	folder	heart	0	770	2
84	23	Female	Right	A	16/09/2017	12:50:11	243	TrialQuartaParte	command	comma	1	718	2
84	23	Female	Right	A	16/09/2017	12:50:11	244	TrialQuartaParte	miller	gloom	0	619	2
84	23	Female	Right	A	16/09/2017	12:50:11	245	TrialQuartaParte	phoenix	blont	2	610	1
84	23	Female	Right	A	16/09/2017	12:50:11	246	TrialQuartaParte	pottery	crook	0	788	2
84	23	Female	Right	A	16/09/2017	12:50:11	247	TrialQuartaParte	prudish	force	0	479	2
84	23	Female	Right	A	16/09/2017	12:50:11	248	TrialQuartaParte	cousin	coul	2	895	2
84	23	Female	Right	A	16/09/2017	12:50:11	249	TrialQuartaParte	vigilant	vigan	2	1012	2
84	23	Female	Right	A	16/09/2017	12:50:11	250	TrialQuartaParte	category	cagre	2	636	1
84	23	Female	Right	A	16/09/2017	12:50:11	251	TrialQuartaParte	roller	quart	0	786	2
84	23	Female	Right	A	16/09/2017	12:50:11	252	TrialQuartaParte	active	blood	0	559	2
84	23	Female	Right	A	16/09/2017	12:50:11	253	TrialQuartaParte	government	govern	1	412	2
84	23	Female	Right	A	16/09/2017	12:50:11	254	TrialQuartaParte	infantry	infant	1	490	2
84	23	Female	Right	A	16/09/2017	12:50:11	255	TrialQuartaParte	liquidate	liquid	1	474	2
84	23	Female	Right	A	16/09/2017	12:50:11	256	TrialQuartaParte	angler	treat	0	637	2
84	23	Female	Right	A	16/09/2017	12:50:11	257	TrialQuartaParte	manual	mals	2	678	1
84	23	Female	Right	A	16/09/2017	12:50:11	258	TrialQuartaParte	plumage	plum	1	609	2
84	23	Female	Right	A	16/09/2017	12:50:11	259	TrialQuartaParte	gifted	pulp	0	694	2
84	23	Female	Right	A	16/09/2017	12:50:11	260	TrialQuartaParte	absence	agsel	2	636	1
84	23	Female	Right	A	16/09/2017	12:50:11	261	TrialQuartaParte	turmoil	furm	2	656	1
84	23	Female	Right	A	16/09/2017	12:50:11	262	TrialQuartaParte	maternal	malern	2	555	1
84	23	Female	Right	A	16/09/2017	12:50:11	263	TrialQuartaParte	renewable	renew	1	559	2
84	23	Female	Right	A	16/09/2017	12:50:11	264	TrialQuartaParte	harden	filth	0	575	1
84	23	Female	Right	A	16/09/2017	12:50:11	265	TrialQuartaParte	snobby	snool	2	557	1
84	23	Female	Right	A	16/09/2017	12:50:11	266	TrialQuartaParte	buzzard	buzz	1	673	2
84	23	Female	Right	A	16/09/2017	12:50:11	267	TrialQuartaParte	crush	bemp	2	552	1
84	23	Female	Right	A	16/09/2017	12:50:11	268	TrialQuartaParte	stroke	cligh	2	487	1
84	23	Female	Right	A	16/09/2017	12:50:11	269	TrialQuartaParte	happy	sigh	0	476	2
84	23	Female	Right	A	16/09/2017	12:50:11	270	TrialQuartaParte	content	conly	2	598	1
84	23	Female	Right	A	16/09/2017	12:50:11	271	TrialQuartaParte	lovers	flesh	0	835	1
84	23	Female	Right	A	16/09/2017	12:50:11	272	TrialQuartaParte	sandy	iron	0	955	2
84	23	Female	Right	A	16/09/2017	12:50:11	273	TrialQuartaParte	sensuous	secly	2	594	1
84	23	Female	Right	A	16/09/2017	12:50:11	274	TrialQuartaParte	fixture	strul	2	486	1
84	23	Female	Right	A	16/09/2017	12:50:11	275	TrialQuartaParte	tripper	mourn	0	565	1
84	23	Female	Right	A	16/09/2017	12:50:11	276	TrialQuartaParte	crikey	brize	2	678	1
84	23	Female	Right	A	16/09/2017	12:50:11	277	TrialQuartaParte	stubborn	stub	1	517	1
84	23	Female	Right	A	16/09/2017	12:50:11	278	TrialQuartaParte	polite	tind	2	669	1
84	23	Female	Right	A	16/09/2017	12:50:11	279	TrialQuartaParte	inherent	inpock	2	506	1
84	23	Female	Right	A	16/09/2017	12:50:11	280	TrialQuartaParte	ethereal	ether	1	605	1
84	23	Female	Right	A	16/09/2017	12:50:11	281	TrialQuartaParte	skylight	skigh	2	587	1
84	23	Female	Right	A	16/09/2017	12:50:11	282	TrialQuartaParte	muffin	mufir	2	486	1
84	23	Female	Right	A	16/09/2017	12:50:11	283	TrialQuartaParte	international	intern	1	546	2
84	23	Female	Right	A	16/09/2017	12:50:11	284	TrialQuartaParte	question	quest	1	427	2
84	23	Female	Right	A	16/09/2017	12:50:11	285	TrialQuartaParte	golden	free	0	520	2
84	23	Female	Right	A	16/09/2017	12:50:11	286	TrialQuartaParte	olympic	olick	2	553	1
84	23	Female	Right	A	16/09/2017	12:50:11	287	TrialQuartaParte	ambush	amshy	2	441	1
84	23	Female	Right	A	16/09/2017	12:50:11	288	TrialQuartaParte	airtight	aith	2	441	1
84	23	Female	Right	A	16/09/2017	12:50:11	289	TrialQuartaParte	bubble	glef	2	450	1
84	23	Female	Right	A	16/09/2017	12:50:11	290	TrialQuartaParte	appendix	append	1	622	1
84	23	Female	Right	A	16/09/2017	12:50:11	291	TrialQuartaParte	clanger	spant	2	495	1
84	23	Female	Right	A	16/09/2017	12:50:11	292	TrialQuartaParte	neutron	whese	2	481	2
84	23	Female	Right	A	16/09/2017	12:50:11	293	TrialQuartaParte	difference	difrol	2	509	1
84	23	Female	Right	A	16/09/2017	12:50:11	294	TrialQuartaParte	really	numb	0	887	2
84	23	Female	Right	A	16/09/2017	12:50:11	295	TrialQuartaParte	abstain	abter	2	508	1
84	23	Female	Right	A	16/09/2017	12:50:11	296	TrialQuartaParte	wishful	toast	0	540	2
84	23	Female	Right	A	16/09/2017	12:50:11	297	TrialQuartaParte	courteous	court	1	827	2
84	23	Female	Right	A	16/09/2017	12:50:11	298	TrialQuartaParte	cheaply	twin	0	599	2
84	23	Female	Right	A	16/09/2017	12:50:11	299	TrialQuartaParte	answer	anwe	2	522	1
84	23	Female	Right	A	16/09/2017	12:50:11	300	TrialQuartaParte	decision	posig	2	599	1
