Subject	Age	Gender	Handedness	Rotation	Data	OraStart	TrialCount	TrialType	Prime	Target	Relatedness	rt	Resp
76	23	Female	Right	B	16/09/2017	10:23:54	1	Prova	wellness	well	4	1091	2
76	23	Female	Right	B	16/09/2017	10:23:54	2	Prova	homeless	home	4	581	2
76	23	Female	Right	B	16/09/2017	10:23:54	3	Prova	tricky	tricker	4	1006	2
76	23	Female	Right	B	16/09/2017	10:23:54	4	Prova	character	char	4	1491	1
76	23	Female	Right	B	16/09/2017	10:23:54	5	Prova	translater	pulter	4	853	1
76	23	Female	Right	B	16/09/2017	10:23:54	6	Prova2	escape	exat	4	836	1
76	23	Female	Right	B	16/09/2017	10:23:54	7	Prova2	investigator	invest	4	724	2
76	23	Female	Right	B	16/09/2017	10:23:54	8	Prova2	examiner	exam	4	612	2
76	23	Female	Right	B	16/09/2017	10:23:54	9	Prova2	topic	top	4	680	2
76	23	Female	Right	B	16/09/2017	10:23:54	1	Warmup	unpack	pack	5	605	2
76	23	Female	Right	B	16/09/2017	10:23:54	2	Warmup	tartare	tariff	5	723	1
76	23	Female	Right	B	16/09/2017	10:23:54	3	Warmup	cowrie	sturms	5	774	1
76	23	Female	Right	B	16/09/2017	10:23:54	4	Warmup	cortex	newbie	5	771	1
76	23	Female	Right	B	16/09/2017	10:23:54	5	Warmup	pullma	pulm	5	753	1
76	23	Female	Right	B	16/09/2017	10:23:54	1	TrialPrimaParte	scalding	scald	1	793	2
76	23	Female	Right	B	16/09/2017	10:23:54	2	TrialPrimaParte	friar	blyr	2	641	1
76	23	Female	Right	B	16/09/2017	10:23:54	3	TrialPrimaParte	tributary	calin	2	574	1
76	23	Female	Right	B	16/09/2017	10:23:54	4	TrialPrimaParte	gravel	flixy	2	474	1
76	23	Female	Right	B	16/09/2017	10:23:54	5	TrialPrimaParte	quieten	quiet	1	584	2
76	23	Female	Right	B	16/09/2017	10:23:54	6	TrialPrimaParte	harden	filth	0	443	1
76	23	Female	Right	B	16/09/2017	10:23:54	7	TrialPrimaParte	sensuous	secly	2	727	1
76	23	Female	Right	B	16/09/2017	10:23:54	8	TrialPrimaParte	really	numb	0	821	2
76	23	Female	Right	B	16/09/2017	10:23:54	9	TrialPrimaParte	miller	gloom	0	678	2
76	23	Female	Right	B	16/09/2017	10:23:54	10	TrialPrimaParte	prudish	force	0	539	2
76	23	Female	Right	B	16/09/2017	10:23:54	11	TrialPrimaParte	muffin	mufir	2	596	1
76	23	Female	Right	B	16/09/2017	10:23:54	12	TrialPrimaParte	vivacious	vicis	2	647	1
76	23	Female	Right	B	16/09/2017	10:23:54	13	TrialPrimaParte	chatter	trump	0	599	2
76	23	Female	Right	B	16/09/2017	10:23:54	14	TrialPrimaParte	kinetic	kinse	2	549	1
76	23	Female	Right	B	16/09/2017	10:23:54	15	TrialPrimaParte	angelic	angel	1	376	2
76	23	Female	Right	B	16/09/2017	10:23:54	16	TrialPrimaParte	agreement	agree	1	446	2
76	23	Female	Right	B	16/09/2017	10:23:54	17	TrialPrimaParte	crush	bemp	2	511	1
76	23	Female	Right	B	16/09/2017	10:23:54	18	TrialPrimaParte	highlight	gylpo	2	506	1
76	23	Female	Right	B	16/09/2017	10:23:54	19	TrialPrimaParte	centimetres	censar	2	755	1
76	23	Female	Right	B	16/09/2017	10:23:54	20	TrialPrimaParte	bubble	glef	2	455	1
76	23	Female	Right	B	16/09/2017	10:23:54	21	TrialPrimaParte	discern	disc	1	537	1
76	23	Female	Right	B	16/09/2017	10:23:54	22	TrialPrimaParte	legendary	legend	1	459	2
76	23	Female	Right	B	16/09/2017	10:23:54	23	TrialPrimaParte	repertory	repty	2	576	1
76	23	Female	Right	B	16/09/2017	10:23:54	24	TrialPrimaParte	inherent	inpock	2	693	1
76	23	Female	Right	B	16/09/2017	10:23:54	25	TrialPrimaParte	grouse	gruf	2	509	1
76	23	Female	Right	B	16/09/2017	10:23:54	26	TrialPrimaParte	traffic	trepy	2	579	1
76	23	Female	Right	B	16/09/2017	10:23:54	27	TrialPrimaParte	audition	audit	1	588	1
76	23	Female	Right	B	16/09/2017	10:23:54	28	TrialPrimaParte	weekly	rabbi	0	837	1
76	23	Female	Right	B	16/09/2017	10:23:54	29	TrialPrimaParte	biscuit	bist	2	631	1
76	23	Female	Right	B	16/09/2017	10:23:54	30	TrialPrimaParte	content	conly	2	528	1
76	23	Female	Right	B	16/09/2017	10:23:54	31	TrialPrimaParte	prayer	butt	0	515	1
76	23	Female	Right	B	16/09/2017	10:23:54	32	TrialPrimaParte	passel	turp	2	414	1
76	23	Female	Right	B	16/09/2017	10:23:54	33	TrialPrimaParte	prosecution	leler	2	567	1
76	23	Female	Right	B	16/09/2017	10:23:54	34	TrialPrimaParte	supplant	plosy	2	447	1
76	23	Female	Right	B	16/09/2017	10:23:54	35	TrialPrimaParte	abstract	fewtu	2	507	1
76	23	Female	Right	B	16/09/2017	10:23:54	36	TrialPrimaParte	sandy	iron	0	720	2
76	23	Female	Right	B	16/09/2017	10:23:54	37	TrialPrimaParte	fuselage	fuse	1	528	2
76	23	Female	Right	B	16/09/2017	10:23:54	38	TrialPrimaParte	halogen	haly	2	626	2
76	23	Female	Right	B	16/09/2017	10:23:54	39	TrialPrimaParte	splinter	splint	1	476	1
76	23	Female	Right	B	16/09/2017	10:23:54	40	TrialPrimaParte	syphilis	ruar	2	500	1
76	23	Female	Right	B	16/09/2017	10:23:54	41	TrialPrimaParte	naughty	troll	0	526	2
76	23	Female	Right	B	16/09/2017	10:23:54	42	TrialPrimaParte	against	again	1	437	2
76	23	Female	Right	B	16/09/2017	10:23:54	43	TrialPrimaParte	trashy	rell	2	413	2
76	23	Female	Right	B	16/09/2017	10:23:54	44	TrialPrimaParte	cheaply	twin	0	586	2
76	23	Female	Right	B	16/09/2017	10:23:54	45	TrialPrimaParte	colonel	colon	1	727	2
76	23	Female	Right	B	16/09/2017	10:23:54	46	TrialPrimaParte	northern	north	1	544	2
76	23	Female	Right	B	16/09/2017	10:23:54	47	TrialPrimaParte	teacher	teach	1	386	2
76	23	Female	Right	B	16/09/2017	10:23:54	48	TrialPrimaParte	golden	free	0	406	2
76	23	Female	Right	B	16/09/2017	10:23:54	49	TrialPrimaParte	child	sild	2	403	2
76	23	Female	Right	B	16/09/2017	10:23:54	50	TrialPrimaParte	thorny	marsh	0	529	1
76	23	Female	Right	B	16/09/2017	10:23:54	51	TrialPrimaParte	category	cagre	2	841	1
76	23	Female	Right	B	16/09/2017	10:23:54	52	TrialPrimaParte	abstain	abter	2	790	1
76	23	Female	Right	B	16/09/2017	10:23:54	53	TrialPrimaParte	rebound	cous	2	853	1
76	23	Female	Right	B	16/09/2017	10:23:54	54	TrialPrimaParte	inventory	invent	1	529	2
76	23	Female	Right	B	16/09/2017	10:23:54	55	TrialPrimaParte	ribbon	ribed	2	794	2
76	23	Female	Right	B	16/09/2017	10:23:54	56	TrialPrimaParte	command	comma	1	873	2
76	23	Female	Right	B	16/09/2017	10:23:54	57	TrialPrimaParte	killer	lalf	2	721	1
76	23	Female	Right	B	16/09/2017	10:23:54	58	TrialPrimaParte	stressful	abgaid	2	642	1
76	23	Female	Right	B	16/09/2017	10:23:54	59	TrialPrimaParte	ceramic	cerbs	2	434	1
76	23	Female	Right	B	16/09/2017	10:23:54	60	TrialPrimaParte	scanner	rast	2	610	1
76	23	Female	Right	B	16/09/2017	10:23:54	61	TrialPrimaParte	touchy	fizz	0	578	1
76	23	Female	Right	B	16/09/2017	10:23:54	62	TrialPrimaParte	clanger	spant	2	683	2
76	23	Female	Right	B	16/09/2017	10:23:54	63	TrialPrimaParte	safely	brand	0	591	1
76	23	Female	Right	B	16/09/2017	10:23:54	64	TrialPrimaParte	lethal	lerd	2	686	1
76	23	Female	Right	B	16/09/2017	10:23:54	65	TrialPrimaParte	twelfth	smug	0	1105	1
76	23	Female	Right	B	16/09/2017	10:23:54	66	TrialPrimaParte	ninety	scrap	0	1013	2
76	23	Female	Right	B	16/09/2017	10:23:54	67	TrialPrimaParte	deficit	dety	2	780	1
76	23	Female	Right	B	16/09/2017	10:23:54	68	TrialPrimaParte	plaintiff	plain	1	528	2
76	23	Female	Right	B	16/09/2017	10:23:54	69	TrialPrimaParte	foetal	fongs	2	561	2
76	23	Female	Right	B	16/09/2017	10:23:54	70	TrialPrimaParte	country	count	1	669	2
76	23	Female	Right	B	16/09/2017	10:23:54	71	TrialPrimaParte	coyness	whisk	0	605	1
76	23	Female	Right	B	16/09/2017	10:23:54	72	TrialPrimaParte	liquidate	liquid	1	549	2
76	23	Female	Right	B	16/09/2017	10:23:54	73	TrialPrimaParte	beastly	widow	0	580	2
76	23	Female	Right	B	16/09/2017	10:23:54	74	TrialPrimaParte	analogy	anopy	2	759	1
76	23	Female	Right	B	16/09/2017	10:23:54	75	TrialPrimaParte	angler	treat	0	477	2
76	23	Female	Right	B	16/09/2017	10:23:54	76	TrialSecondaParte	portal	balp	2	792	1
76	23	Female	Right	B	16/09/2017	10:23:54	77	TrialSecondaParte	mosaic	mip	2	600	1
76	23	Female	Right	B	16/09/2017	10:23:54	78	TrialSecondaParte	armoury	arwor	2	556	1
76	23	Female	Right	B	16/09/2017	10:23:54	79	TrialSecondaParte	dealer	poet	0	708	2
76	23	Female	Right	B	16/09/2017	10:23:54	80	TrialSecondaParte	hydration	povic	2	727	1
76	23	Female	Right	B	16/09/2017	10:23:54	81	TrialSecondaParte	awaken	tood	2	714	2
76	23	Female	Right	B	16/09/2017	10:23:54	82	TrialSecondaParte	rational	ration	1	491	2
76	23	Female	Right	B	16/09/2017	10:23:54	83	TrialSecondaParte	firmly	heave	0	613	2
76	23	Female	Right	B	16/09/2017	10:23:54	84	TrialSecondaParte	blush	blif	2	948	2
76	23	Female	Right	B	16/09/2017	10:23:54	85	TrialSecondaParte	routeing	tomed	2	748	1
76	23	Female	Right	B	16/09/2017	10:23:54	86	TrialSecondaParte	farcical	farxy	2	607	1
76	23	Female	Right	B	16/09/2017	10:23:54	87	TrialSecondaParte	surface	surf	1	635	2
76	23	Female	Right	B	16/09/2017	10:23:54	88	TrialSecondaParte	engage	yurd	2	631	1
76	23	Female	Right	B	16/09/2017	10:23:54	89	TrialSecondaParte	neighbour	neigh	1	823	2
76	23	Female	Right	B	16/09/2017	10:23:54	90	TrialSecondaParte	tripper	mourn	0	779	1
76	23	Female	Right	B	16/09/2017	10:23:54	91	TrialSecondaParte	silken	tuft	0	646	1
76	23	Female	Right	B	16/09/2017	10:23:54	92	TrialSecondaParte	geisha	crove	2	806	1
76	23	Female	Right	B	16/09/2017	10:23:54	93	TrialSecondaParte	happy	sigh	0	696	2
76	23	Female	Right	B	16/09/2017	10:23:54	94	TrialSecondaParte	dysentery	ranin	2	659	1
76	23	Female	Right	B	16/09/2017	10:23:54	95	TrialSecondaParte	manual	mals	2	634	1
76	23	Female	Right	B	16/09/2017	10:23:54	96	TrialSecondaParte	amenable	amen	1	904	2
76	23	Female	Right	B	16/09/2017	10:23:54	97	TrialSecondaParte	culprit	cuti	2	672	1
76	23	Female	Right	B	16/09/2017	10:23:54	98	TrialSecondaParte	gaiety	harse	2	728	2
76	23	Female	Right	B	16/09/2017	10:23:54	99	TrialSecondaParte	factual	board	0	707	2
76	23	Female	Right	B	16/09/2017	10:23:54	100	TrialSecondaParte	department	depart	1	582	2
76	23	Female	Right	B	16/09/2017	10:23:54	101	TrialSecondaParte	snobbery	snotty	2	902	1
76	23	Female	Right	B	16/09/2017	10:23:54	102	TrialSecondaParte	cookery	train	0	513	2
76	23	Female	Right	B	16/09/2017	10:23:54	103	TrialSecondaParte	penguin	phorb	2	613	1
76	23	Female	Right	B	16/09/2017	10:23:54	104	TrialSecondaParte	difference	difrol	2	663	1
76	23	Female	Right	B	16/09/2017	10:23:54	105	TrialSecondaParte	stampede	stamp	1	702	2
76	23	Female	Right	B	16/09/2017	10:23:54	106	TrialSecondaParte	raffle	rafel	2	630	1
76	23	Female	Right	B	16/09/2017	10:23:54	107	TrialSecondaParte	buzzard	buzz	1	660	2
76	23	Female	Right	B	16/09/2017	10:23:54	108	TrialSecondaParte	monastery	fagor	2	595	1
76	23	Female	Right	B	16/09/2017	10:23:54	109	TrialSecondaParte	olympic	olick	2	733	1
76	23	Female	Right	B	16/09/2017	10:23:54	110	TrialSecondaParte	asterix	cret	2	820	1
76	23	Female	Right	B	16/09/2017	10:23:54	111	TrialSecondaParte	socialiser	flepity	2	695	1
76	23	Female	Right	B	16/09/2017	10:23:54	112	TrialSecondaParte	education	educon	2	865	1
76	23	Female	Right	B	16/09/2017	10:23:54	113	TrialSecondaParte	twisty	jerk	0	1119	2
76	23	Female	Right	B	16/09/2017	10:23:54	114	TrialSecondaParte	lesser	twit	0	584	2
76	23	Female	Right	B	16/09/2017	10:23:54	115	TrialSecondaParte	lessen	bomb	0	565	2
76	23	Female	Right	B	16/09/2017	10:23:54	116	TrialSecondaParte	griffin	spoff	2	660	2
76	23	Female	Right	B	16/09/2017	10:23:54	117	TrialSecondaParte	reliable	blidar	2	654	1
76	23	Female	Right	B	16/09/2017	10:23:54	118	TrialSecondaParte	criminal	huare	2	723	1
76	23	Female	Right	B	16/09/2017	10:23:54	119	TrialSecondaParte	thinly	golf	0	778	2
76	23	Female	Right	B	16/09/2017	10:23:54	120	TrialSecondaParte	itchy	shun	0	840	1
76	23	Female	Right	B	16/09/2017	10:23:54	121	TrialSecondaParte	unique	unzed	2	551	1
76	23	Female	Right	B	16/09/2017	10:23:54	122	TrialSecondaParte	thinker	beard	0	579	2
76	23	Female	Right	B	16/09/2017	10:23:54	123	TrialSecondaParte	cryptic	crypt	1	717	2
76	23	Female	Right	B	16/09/2017	10:23:54	124	TrialSecondaParte	piratical	pirent	2	886	1
76	23	Female	Right	B	16/09/2017	10:23:54	125	TrialSecondaParte	fishy	putt	0	714	2
76	23	Female	Right	B	16/09/2017	10:23:54	126	TrialSecondaParte	faceless	facmod	2	605	1
76	23	Female	Right	B	16/09/2017	10:23:54	127	TrialSecondaParte	employer	employ	1	731	2
76	23	Female	Right	B	16/09/2017	10:23:54	128	TrialSecondaParte	eruption	erupt	1	680	2
76	23	Female	Right	B	16/09/2017	10:23:54	129	TrialSecondaParte	heroic	soft	0	514	2
76	23	Female	Right	B	16/09/2017	10:23:54	130	TrialSecondaParte	acreage	acre	1	903	1
76	23	Female	Right	B	16/09/2017	10:23:54	131	TrialSecondaParte	folder	heart	0	532	2
76	23	Female	Right	B	16/09/2017	10:23:54	132	TrialSecondaParte	widen	amp	0	1031	1
76	23	Female	Right	B	16/09/2017	10:23:54	133	TrialSecondaParte	active	blood	0	457	2
76	23	Female	Right	B	16/09/2017	10:23:54	134	TrialSecondaParte	tamponade	ruffy	2	617	1
76	23	Female	Right	B	16/09/2017	10:23:54	135	TrialSecondaParte	summit	sutty	2	887	1
76	23	Female	Right	B	16/09/2017	10:23:54	136	TrialSecondaParte	secretary	secret	1	589	2
76	23	Female	Right	B	16/09/2017	10:23:54	137	TrialSecondaParte	daring	dalig	2	678	1
76	23	Female	Right	B	16/09/2017	10:23:54	138	TrialSecondaParte	watery	cream	0	689	2
76	23	Female	Right	B	16/09/2017	10:23:54	139	TrialSecondaParte	desert	dert	2	704	1
76	23	Female	Right	B	16/09/2017	10:23:54	140	TrialSecondaParte	edible	esigh	2	801	1
76	23	Female	Right	B	16/09/2017	10:23:54	141	TrialSecondaParte	graphic	blamp	2	757	2
76	23	Female	Right	B	16/09/2017	10:23:54	142	TrialSecondaParte	paternal	siter	2	714	1
76	23	Female	Right	B	16/09/2017	10:23:54	143	TrialSecondaParte	vengeful	cherb	2	654	1
76	23	Female	Right	B	16/09/2017	10:23:54	144	TrialSecondaParte	lovers	flesh	0	1043	1
76	23	Female	Right	B	16/09/2017	10:23:54	145	TrialSecondaParte	editor	plan	0	635	2
76	23	Female	Right	B	16/09/2017	10:23:54	146	TrialSecondaParte	smelly	thuly	2	920	2
76	23	Female	Right	B	16/09/2017	10:23:54	147	TrialSecondaParte	advisory	advock	2	817	1
76	23	Female	Right	B	16/09/2017	10:23:54	148	TrialSecondaParte	filmy	plus	0	696	2
76	23	Female	Right	B	16/09/2017	10:23:54	149	TrialSecondaParte	leftist	bulb	0	658	2
76	23	Female	Right	B	16/09/2017	10:23:54	150	TrialSecondaParte	cuffs	glad	0	654	2
76	23	Female	Right	B	16/09/2017	10:23:54	151	TrialTerzaParte	ambush	amshy	2	906	1
76	23	Female	Right	B	16/09/2017	10:23:54	152	TrialTerzaParte	plastic	spaxe	2	631	1
76	23	Female	Right	B	16/09/2017	10:23:54	153	TrialTerzaParte	yearly	acid	0	682	2
76	23	Female	Right	B	16/09/2017	10:23:54	154	TrialTerzaParte	manly	weir	0	552	1
76	23	Female	Right	B	16/09/2017	10:23:54	155	TrialTerzaParte	skylight	skigh	2	638	1
76	23	Female	Right	B	16/09/2017	10:23:54	156	TrialTerzaParte	dreamer	dream	1	548	2
76	23	Female	Right	B	16/09/2017	10:23:54	157	TrialTerzaParte	formal	guilt	0	634	2
76	23	Female	Right	B	16/09/2017	10:23:54	158	TrialTerzaParte	maternal	malern	2	603	1
76	23	Female	Right	B	16/09/2017	10:23:54	159	TrialTerzaParte	itinerary	itiner	2	640	1
76	23	Female	Right	B	16/09/2017	10:23:54	160	TrialTerzaParte	vertical	verks	2	580	1
76	23	Female	Right	B	16/09/2017	10:23:54	161	TrialTerzaParte	classic	clals	2	649	1
76	23	Female	Right	B	16/09/2017	10:23:54	162	TrialTerzaParte	government	govern	1	1128	2
76	23	Female	Right	B	16/09/2017	10:23:54	163	TrialTerzaParte	pottage	posch	2	646	1
76	23	Female	Right	B	16/09/2017	10:23:54	164	TrialTerzaParte	lively	licey	2	730	1
76	23	Female	Right	B	16/09/2017	10:23:54	165	TrialTerzaParte	sovereign	sovign	2	940	1
76	23	Female	Right	B	16/09/2017	10:23:54	166	TrialTerzaParte	parenthesis	parent	1	512	2
76	23	Female	Right	B	16/09/2017	10:23:54	167	TrialTerzaParte	glossary	gloss	1	583	2
76	23	Female	Right	B	16/09/2017	10:23:54	168	TrialTerzaParte	dusty	dusy	2	611	2
76	23	Female	Right	B	16/09/2017	10:23:54	169	TrialTerzaParte	sudden	verty	2	584	1
76	23	Female	Right	B	16/09/2017	10:23:54	170	TrialTerzaParte	ethereal	ether	1	578	1
76	23	Female	Right	B	16/09/2017	10:23:54	171	TrialTerzaParte	phonetic	phone	1	536	2
76	23	Female	Right	B	16/09/2017	10:23:54	172	TrialTerzaParte	vainly	craft	0	560	2
76	23	Female	Right	B	16/09/2017	10:23:54	173	TrialTerzaParte	drunkard	drunk	1	464	2
76	23	Female	Right	B	16/09/2017	10:23:54	174	TrialTerzaParte	baronet	baron	1	742	2
76	23	Female	Right	B	16/09/2017	10:23:54	175	TrialTerzaParte	tract	trep	2	667	2
76	23	Female	Right	B	16/09/2017	10:23:54	176	TrialTerzaParte	facetious	facet	1	784	2
76	23	Female	Right	B	16/09/2017	10:23:54	177	TrialTerzaParte	cranky	crony	2	706	1
76	23	Female	Right	B	16/09/2017	10:23:54	178	TrialTerzaParte	fixture	strul	2	892	1
76	23	Female	Right	B	16/09/2017	10:23:54	179	TrialTerzaParte	inhibitory	inhibit	1	565	2
76	23	Female	Right	B	16/09/2017	10:23:54	180	TrialTerzaParte	genetic	genth	2	736	1
76	23	Female	Right	B	16/09/2017	10:23:54	181	TrialTerzaParte	extract	extra	1	617	2
76	23	Female	Right	B	16/09/2017	10:23:54	182	TrialTerzaParte	artistry	artist	1	502	2
76	23	Female	Right	B	16/09/2017	10:23:54	183	TrialTerzaParte	fibrosis	shuar	2	694	1
76	23	Female	Right	B	16/09/2017	10:23:54	184	TrialTerzaParte	surgeon	surge	1	596	2
76	23	Female	Right	B	16/09/2017	10:23:54	185	TrialTerzaParte	crikey	brize	2	662	2
76	23	Female	Right	B	16/09/2017	10:23:54	186	TrialTerzaParte	haulier	halfe	2	1194	1
76	23	Female	Right	B	16/09/2017	10:23:54	187	TrialTerzaParte	veteran	venic	2	879	1
76	23	Female	Right	B	16/09/2017	10:23:54	188	TrialTerzaParte	gluteal	abtle	2	883	1
76	23	Female	Right	B	16/09/2017	10:23:54	189	TrialTerzaParte	original	orive	2	843	1
76	23	Female	Right	B	16/09/2017	10:23:54	190	TrialTerzaParte	misty	stun	0	690	2
76	23	Female	Right	B	16/09/2017	10:23:54	191	TrialTerzaParte	brothel	broth	1	670	2
76	23	Female	Right	B	16/09/2017	10:23:54	192	TrialTerzaParte	buoyant	stir	0	841	2
76	23	Female	Right	B	16/09/2017	10:23:54	193	TrialTerzaParte	postage	poth	2	795	2
76	23	Female	Right	B	16/09/2017	10:23:54	194	TrialTerzaParte	scrooge	plich	2	933	2
76	23	Female	Right	B	16/09/2017	10:23:54	195	TrialTerzaParte	stubborn	stub	1	639	2
76	23	Female	Right	B	16/09/2017	10:23:54	196	TrialTerzaParte	absence	agsel	2	755	1
76	23	Female	Right	B	16/09/2017	10:23:54	197	TrialTerzaParte	turmoil	furm	2	733	1
76	23	Female	Right	B	16/09/2017	10:23:54	198	TrialTerzaParte	brutal	helm	0	700	2
76	23	Female	Right	B	16/09/2017	10:23:54	199	TrialTerzaParte	airtight	aith	2	715	1
76	23	Female	Right	B	16/09/2017	10:23:54	200	TrialTerzaParte	revolutionise	sivert	2	970	2
76	23	Female	Right	B	16/09/2017	10:23:54	201	TrialTerzaParte	tricky	shove	0	630	2
76	23	Female	Right	B	16/09/2017	10:23:54	202	TrialTerzaParte	upstart	pumy	2	813	1
76	23	Female	Right	B	16/09/2017	10:23:54	203	TrialTerzaParte	fisher	fims	2	892	1
76	23	Female	Right	B	16/09/2017	10:23:54	204	TrialTerzaParte	roller	quart	0	854	2
76	23	Female	Right	B	16/09/2017	10:23:54	205	TrialTerzaParte	ranger	view	0	599	2
76	23	Female	Right	B	16/09/2017	10:23:54	206	TrialTerzaParte	tackler	lerf	2	773	1
76	23	Female	Right	B	16/09/2017	10:23:54	207	TrialTerzaParte	moulder	moure	2	682	1
76	23	Female	Right	B	16/09/2017	10:23:54	208	TrialTerzaParte	adviser	flick	0	597	2
76	23	Female	Right	B	16/09/2017	10:23:54	209	TrialTerzaParte	stroke	cligh	2	533	2
76	23	Female	Right	B	16/09/2017	10:23:54	210	TrialTerzaParte	investigate	invest	1	510	2
76	23	Female	Right	B	16/09/2017	10:23:54	211	TrialTerzaParte	thicket	thick	1	552	2
76	23	Female	Right	B	16/09/2017	10:23:54	212	TrialTerzaParte	plonking	pluny	2	465	2
76	23	Female	Right	B	16/09/2017	10:23:54	213	TrialTerzaParte	frosty	sign	0	734	2
76	23	Female	Right	B	16/09/2017	10:23:54	214	TrialTerzaParte	villain	villa	1	857	2
76	23	Female	Right	B	16/09/2017	10:23:54	215	TrialTerzaParte	power	mord	2	808	1
76	23	Female	Right	B	16/09/2017	10:23:54	216	TrialTerzaParte	bridal	glut	0	767	2
76	23	Female	Right	B	16/09/2017	10:23:54	217	TrialTerzaParte	opposition	nunfy	2	1077	2
76	23	Female	Right	B	16/09/2017	10:23:54	218	TrialTerzaParte	answer	anwe	2	779	1
76	23	Female	Right	B	16/09/2017	10:23:54	219	TrialTerzaParte	hatchery	fighy	2	713	2
76	23	Female	Right	B	16/09/2017	10:23:54	220	TrialTerzaParte	signal	quir	2	924	2
76	23	Female	Right	B	16/09/2017	10:23:54	221	TrialTerzaParte	vigilant	vigan	2	899	1
76	23	Female	Right	B	16/09/2017	10:23:54	222	TrialTerzaParte	cloudless	cloud	1	731	2
76	23	Female	Right	B	16/09/2017	10:23:54	223	TrialTerzaParte	demonstrate	demon	1	723	2
76	23	Female	Right	B	16/09/2017	10:23:54	224	TrialTerzaParte	keeper	gala	0	930	1
76	23	Female	Right	B	16/09/2017	10:23:54	225	TrialTerzaParte	dragon	dron	2	729	2
76	23	Female	Right	B	16/09/2017	10:23:54	226	TrialQuartaParte	sleet	slit	2	832	2
76	23	Female	Right	B	16/09/2017	10:23:54	227	TrialQuartaParte	passant	pasks	2	731	1
76	23	Female	Right	B	16/09/2017	10:23:54	228	TrialQuartaParte	lately	dial	0	789	2
76	23	Female	Right	B	16/09/2017	10:23:54	229	TrialQuartaParte	fanatic	fanty	2	802	2
76	23	Female	Right	B	16/09/2017	10:23:54	230	TrialQuartaParte	scullery	scull	1	974	1
76	23	Female	Right	B	16/09/2017	10:23:54	231	TrialQuartaParte	dietary	diet	1	558	2
76	23	Female	Right	B	16/09/2017	10:23:54	232	TrialQuartaParte	acutely	nymph	0	599	1
76	23	Female	Right	B	16/09/2017	10:23:54	233	TrialQuartaParte	greenery	green	1	684	2
76	23	Female	Right	B	16/09/2017	10:23:54	234	TrialQuartaParte	candidacy	candid	1	591	2
76	23	Female	Right	B	16/09/2017	10:23:54	235	TrialQuartaParte	religious	sisby	2	900	1
76	23	Female	Right	B	16/09/2017	10:23:54	236	TrialQuartaParte	pottery	crook	0	1422	2
76	23	Female	Right	B	16/09/2017	10:23:54	237	TrialQuartaParte	swivel	quat	2	673	2
76	23	Female	Right	B	16/09/2017	10:23:54	238	TrialQuartaParte	legacy	lecy	2	972	1
76	23	Female	Right	B	16/09/2017	10:23:54	239	TrialQuartaParte	rancour	brits	2	606	2
76	23	Female	Right	B	16/09/2017	10:23:54	240	TrialQuartaParte	reaction	react	1	608	2
76	23	Female	Right	B	16/09/2017	10:23:54	241	TrialQuartaParte	polite	tind	2	686	2
76	23	Female	Right	B	16/09/2017	10:23:54	242	TrialQuartaParte	utter	uls	2	546	1
76	23	Female	Right	B	16/09/2017	10:23:54	243	TrialQuartaParte	crummy	meye	2	741	1
76	23	Female	Right	B	16/09/2017	10:23:54	244	TrialQuartaParte	courteous	court	1	590	2
76	23	Female	Right	B	16/09/2017	10:23:54	245	TrialQuartaParte	gastric	waser	2	800	1
76	23	Female	Right	B	16/09/2017	10:23:54	246	TrialQuartaParte	critical	critic	1	564	2
76	23	Female	Right	B	16/09/2017	10:23:54	247	TrialQuartaParte	merrier	merks	2	590	1
76	23	Female	Right	B	16/09/2017	10:23:54	248	TrialQuartaParte	decision	posig	2	667	1
76	23	Female	Right	B	16/09/2017	10:23:54	249	TrialQuartaParte	question	quest	1	733	2
76	23	Female	Right	B	16/09/2017	10:23:54	250	TrialQuartaParte	oxygenate	oxygen	1	673	2
76	23	Female	Right	B	16/09/2017	10:23:54	251	TrialQuartaParte	gently	pub	0	495	2
76	23	Female	Right	B	16/09/2017	10:23:54	252	TrialQuartaParte	electron	elect	1	857	2
76	23	Female	Right	B	16/09/2017	10:23:54	253	TrialQuartaParte	yardage	yage	2	1190	2
76	23	Female	Right	B	16/09/2017	10:23:54	254	TrialQuartaParte	brisket	brisk	1	610	2
76	23	Female	Right	B	16/09/2017	10:23:54	255	TrialQuartaParte	spindly	tact	0	965	1
76	23	Female	Right	B	16/09/2017	10:23:54	256	TrialQuartaParte	pummel	syly	2	586	1
76	23	Female	Right	B	16/09/2017	10:23:54	257	TrialQuartaParte	alarming	alarm	1	678	2
76	23	Female	Right	B	16/09/2017	10:23:54	258	TrialQuartaParte	feudal	arch	0	638	1
76	23	Female	Right	B	16/09/2017	10:23:54	259	TrialQuartaParte	floater	float	1	560	2
76	23	Female	Right	B	16/09/2017	10:23:54	260	TrialQuartaParte	swotting	chuly	2	645	1
76	23	Female	Right	B	16/09/2017	10:23:54	261	TrialQuartaParte	jetty	kuty	2	1018	1
76	23	Female	Right	B	16/09/2017	10:23:54	262	TrialQuartaParte	finely	chill	0	564	2
76	23	Female	Right	B	16/09/2017	10:23:54	263	TrialQuartaParte	textile	text	1	572	2
76	23	Female	Right	B	16/09/2017	10:23:54	264	TrialQuartaParte	oddity	squaw	0	758	2
76	23	Female	Right	B	16/09/2017	10:23:54	265	TrialQuartaParte	phoenix	blont	2	613	2
76	23	Female	Right	B	16/09/2017	10:23:54	266	TrialQuartaParte	linkage	flion	2	738	1
76	23	Female	Right	B	16/09/2017	10:23:54	267	TrialQuartaParte	arsenal	arse	1	763	1
76	23	Female	Right	B	16/09/2017	10:23:54	268	TrialQuartaParte	basilisk	basil	1	777	1
76	23	Female	Right	B	16/09/2017	10:23:54	269	TrialQuartaParte	neutron	whese	2	752	1
76	23	Female	Right	B	16/09/2017	10:23:54	270	TrialQuartaParte	talker	claf	2	872	1
76	23	Female	Right	B	16/09/2017	10:23:54	271	TrialQuartaParte	within	earl	0	716	2
76	23	Female	Right	B	16/09/2017	10:23:54	272	TrialQuartaParte	snobby	snool	2	834	1
76	23	Female	Right	B	16/09/2017	10:23:54	273	TrialQuartaParte	appendix	append	1	859	2
76	23	Female	Right	B	16/09/2017	10:23:54	274	TrialQuartaParte	stilted	stilt	1	721	2
76	23	Female	Right	B	16/09/2017	10:23:54	275	TrialQuartaParte	bourbon	boun	2	744	1
76	23	Female	Right	B	16/09/2017	10:23:54	276	TrialQuartaParte	plumage	plum	1	1065	2
76	23	Female	Right	B	16/09/2017	10:23:54	277	TrialQuartaParte	leaflet	organ	0	652	2
76	23	Female	Right	B	16/09/2017	10:23:54	278	TrialQuartaParte	fruitless	fruit	1	498	2
76	23	Female	Right	B	16/09/2017	10:23:54	279	TrialQuartaParte	nincompoops	ninpoo	2	641	1
76	23	Female	Right	B	16/09/2017	10:23:54	280	TrialQuartaParte	muffler	coast	0	652	2
76	23	Female	Right	B	16/09/2017	10:23:54	281	TrialQuartaParte	unspoilt	nalky	2	702	1
76	23	Female	Right	B	16/09/2017	10:23:54	282	TrialQuartaParte	hourly	snip	0	623	1
76	23	Female	Right	B	16/09/2017	10:23:54	283	TrialQuartaParte	winger	pluck	0	912	1
76	23	Female	Right	B	16/09/2017	10:23:54	284	TrialQuartaParte	grueling	gruel	1	697	1
76	23	Female	Right	B	16/09/2017	10:23:54	285	TrialQuartaParte	fabulous	smaply	2	584	1
76	23	Female	Right	B	16/09/2017	10:23:54	286	TrialQuartaParte	gifted	pulp	0	506	2
76	23	Female	Right	B	16/09/2017	10:23:54	287	TrialQuartaParte	cousin	coul	2	705	2
76	23	Female	Right	B	16/09/2017	10:23:54	288	TrialQuartaParte	downs	risk	0	494	2
76	23	Female	Right	B	16/09/2017	10:23:54	289	TrialQuartaParte	damsel	dalp	2	720	1
76	23	Female	Right	B	16/09/2017	10:23:54	290	TrialQuartaParte	infantry	infant	1	571	2
76	23	Female	Right	B	16/09/2017	10:23:54	291	TrialQuartaParte	wishful	toast	0	574	2
76	23	Female	Right	B	16/09/2017	10:23:54	292	TrialQuartaParte	fatal	fids	2	650	1
76	23	Female	Right	B	16/09/2017	10:23:54	293	TrialQuartaParte	message	rosty	2	581	1
76	23	Female	Right	B	16/09/2017	10:23:54	294	TrialQuartaParte	renewable	renew	1	609	2
76	23	Female	Right	B	16/09/2017	10:23:54	295	TrialQuartaParte	fleeting	fleet	1	528	2
76	23	Female	Right	B	16/09/2017	10:23:54	296	TrialQuartaParte	international	intern	1	595	2
76	23	Female	Right	B	16/09/2017	10:23:54	297	TrialQuartaParte	illicit	ilkis	2	645	1
76	23	Female	Right	B	16/09/2017	10:23:54	298	TrialQuartaParte	kingdom	adopt	0	690	2
76	23	Female	Right	B	16/09/2017	10:23:54	299	TrialQuartaParte	others	unit	0	594	2
76	23	Female	Right	B	16/09/2017	10:23:54	300	TrialQuartaParte	maximum	suyte	2	603	1
