Subject	Age	Gender	Handedness	Rotation	Data	OraStart	TrialCount	TrialType	Prime	Target	Relatedness	rt	Resp
36	21	Female	Right	B	30/11/2016	14:08:12	1	Prova	wellness	well	4	388	2
36	21	Female	Right	B	30/11/2016	14:08:12	2	Prova	homeless	home	4	409	2
36	21	Female	Right	B	30/11/2016	14:08:12	3	Prova	tricky	tricker	4	508	1
36	21	Female	Right	B	30/11/2016	14:08:12	4	Prova	character	char	4	551	1
36	21	Female	Right	B	30/11/2016	14:08:12	5	Prova	translater	pulter	4	523	1
36	21	Female	Right	B	30/11/2016	14:08:12	6	Prova2	escape	exat	4	546	2
36	21	Female	Right	B	30/11/2016	14:08:12	7	Prova2	investigator	invest	4	389	2
36	21	Female	Right	B	30/11/2016	14:08:12	8	Prova2	examiner	exam	4	442	2
36	21	Female	Right	B	30/11/2016	14:08:12	9	Prova2	topic	top	4	370	2
36	21	Female	Right	B	30/11/2016	14:08:12	1	Warmup	unpack	pack	5	441	2
36	21	Female	Right	B	30/11/2016	14:08:12	2	Warmup	tartare	tariff	5	584	2
36	21	Female	Right	B	30/11/2016	14:08:12	3	Warmup	cowrie	sturms	5	388	2
36	21	Female	Right	B	30/11/2016	14:08:12	4	Warmup	cortex	newbie	5	806	1
36	21	Female	Right	B	30/11/2016	14:08:12	5	Warmup	pullma	pulm	5	486	2
36	21	Female	Right	B	30/11/2016	14:08:12	1	TrialPrimaParte	reaction	react	1	467	2
36	21	Female	Right	B	30/11/2016	14:08:12	2	TrialPrimaParte	scalding	scald	1	392	2
36	21	Female	Right	B	30/11/2016	14:08:12	3	TrialPrimaParte	cryptic	crypt	1	708	2
36	21	Female	Right	B	30/11/2016	14:08:12	4	TrialPrimaParte	candidacy	candid	1	458	2
36	21	Female	Right	B	30/11/2016	14:08:12	5	TrialPrimaParte	department	depart	1	859	2
36	21	Female	Right	B	30/11/2016	14:08:12	6	TrialPrimaParte	vainly	craft	0	862	2
36	21	Female	Right	B	30/11/2016	14:08:12	7	TrialPrimaParte	inhibitory	inhibit	1	550	2
36	21	Female	Right	B	30/11/2016	14:08:12	8	TrialPrimaParte	demonstrate	demon	1	492	2
36	21	Female	Right	B	30/11/2016	14:08:12	9	TrialPrimaParte	traffic	trepy	2	709	1
36	21	Female	Right	B	30/11/2016	14:08:12	10	TrialPrimaParte	prayer	butt	0	554	2
36	21	Female	Right	B	30/11/2016	14:08:12	11	TrialPrimaParte	yearly	acid	0	487	2
36	21	Female	Right	B	30/11/2016	14:08:12	12	TrialPrimaParte	monastery	fagor	2	653	1
36	21	Female	Right	B	30/11/2016	14:08:12	13	TrialPrimaParte	bubble	glef	2	574	1
36	21	Female	Right	B	30/11/2016	14:08:12	14	TrialPrimaParte	textile	text	1	527	2
36	21	Female	Right	B	30/11/2016	14:08:12	15	TrialPrimaParte	rational	ration	1	442	2
36	21	Female	Right	B	30/11/2016	14:08:12	16	TrialPrimaParte	glossary	gloss	1	425	2
36	21	Female	Right	B	30/11/2016	14:08:12	17	TrialPrimaParte	eruption	erupt	1	791	2
36	21	Female	Right	B	30/11/2016	14:08:12	18	TrialPrimaParte	clanger	spant	2	615	1
36	21	Female	Right	B	30/11/2016	14:08:12	19	TrialPrimaParte	liquidate	liquid	1	505	2
36	21	Female	Right	B	30/11/2016	14:08:12	20	TrialPrimaParte	pummel	syly	2	566	1
36	21	Female	Right	B	30/11/2016	14:08:12	21	TrialPrimaParte	villain	villa	1	792	1
36	21	Female	Right	B	30/11/2016	14:08:12	22	TrialPrimaParte	inherent	inpock	2	699	1
36	21	Female	Right	B	30/11/2016	14:08:12	23	TrialPrimaParte	abstract	fewtu	2	702	1
36	21	Female	Right	B	30/11/2016	14:08:12	24	TrialPrimaParte	ribbon	ribed	2	1064	2
36	21	Female	Right	B	30/11/2016	14:08:12	25	TrialPrimaParte	lately	dial	0	971	2
36	21	Female	Right	B	30/11/2016	14:08:12	26	TrialPrimaParte	safely	brand	0	555	2
36	21	Female	Right	B	30/11/2016	14:08:12	27	TrialPrimaParte	investigate	invest	1	425	2
36	21	Female	Right	B	30/11/2016	14:08:12	28	TrialPrimaParte	plastic	spaxe	2	775	1
36	21	Female	Right	B	30/11/2016	14:08:12	29	TrialPrimaParte	halogen	haly	2	695	1
36	21	Female	Right	B	30/11/2016	14:08:12	30	TrialPrimaParte	manly	weir	0	716	2
36	21	Female	Right	B	30/11/2016	14:08:12	31	TrialPrimaParte	frosty	sign	0	493	2
36	21	Female	Right	B	30/11/2016	14:08:12	32	TrialPrimaParte	bridal	glut	0	798	1
36	21	Female	Right	B	30/11/2016	14:08:12	33	TrialPrimaParte	deficit	dety	2	579	1
36	21	Female	Right	B	30/11/2016	14:08:12	34	TrialPrimaParte	kingdom	adopt	0	553	2
36	21	Female	Right	B	30/11/2016	14:08:12	35	TrialPrimaParte	foetal	fongs	2	391	2
36	21	Female	Right	B	30/11/2016	14:08:12	36	TrialPrimaParte	message	rosty	2	446	2
36	21	Female	Right	B	30/11/2016	14:08:12	37	TrialPrimaParte	naughty	troll	0	457	2
36	21	Female	Right	B	30/11/2016	14:08:12	38	TrialPrimaParte	difference	difrol	2	455	2
36	21	Female	Right	B	30/11/2016	14:08:12	39	TrialPrimaParte	golden	free	0	485	2
36	21	Female	Right	B	30/11/2016	14:08:12	40	TrialPrimaParte	socialiser	flepity	2	507	1
36	21	Female	Right	B	30/11/2016	14:08:12	41	TrialPrimaParte	daring	dalig	2	590	2
36	21	Female	Right	B	30/11/2016	14:08:12	42	TrialPrimaParte	thicket	thick	1	452	2
36	21	Female	Right	B	30/11/2016	14:08:12	43	TrialPrimaParte	analogy	anopy	2	527	2
36	21	Female	Right	B	30/11/2016	14:08:12	44	TrialPrimaParte	postage	poth	2	853	1
36	21	Female	Right	B	30/11/2016	14:08:12	45	TrialPrimaParte	cookery	train	0	443	2
36	21	Female	Right	B	30/11/2016	14:08:12	46	TrialPrimaParte	airtight	aith	2	739	1
36	21	Female	Right	B	30/11/2016	14:08:12	47	TrialPrimaParte	cranky	crony	2	568	1
36	21	Female	Right	B	30/11/2016	14:08:12	48	TrialPrimaParte	tackler	lerf	2	911	1
36	21	Female	Right	B	30/11/2016	14:08:12	49	TrialPrimaParte	scrooge	plich	2	550	1
36	21	Female	Right	B	30/11/2016	14:08:12	50	TrialPrimaParte	maximum	suyte	2	521	1
36	21	Female	Right	B	30/11/2016	14:08:12	51	TrialPrimaParte	fisher	fims	2	522	2
36	21	Female	Right	B	30/11/2016	14:08:12	52	TrialPrimaParte	fruitless	fruit	1	424	2
36	21	Female	Right	B	30/11/2016	14:08:12	53	TrialPrimaParte	within	earl	0	457	2
36	21	Female	Right	B	30/11/2016	14:08:12	54	TrialPrimaParte	coyness	whisk	0	473	1
36	21	Female	Right	B	30/11/2016	14:08:12	55	TrialPrimaParte	tributary	calin	2	626	1
36	21	Female	Right	B	30/11/2016	14:08:12	56	TrialPrimaParte	education	educon	2	676	1
36	21	Female	Right	B	30/11/2016	14:08:12	57	TrialPrimaParte	ambush	amshy	2	525	1
36	21	Female	Right	B	30/11/2016	14:08:12	58	TrialPrimaParte	agreement	agree	1	455	2
36	21	Female	Right	B	30/11/2016	14:08:12	59	TrialPrimaParte	vertical	verks	2	562	1
36	21	Female	Right	B	30/11/2016	14:08:12	60	TrialPrimaParte	advisory	advock	2	907	2
36	21	Female	Right	B	30/11/2016	14:08:12	61	TrialPrimaParte	leftist	bulb	0	882	2
36	21	Female	Right	B	30/11/2016	14:08:12	62	TrialPrimaParte	arsenal	arse	1	749	1
36	21	Female	Right	B	30/11/2016	14:08:12	63	TrialPrimaParte	power	mord	2	812	1
36	21	Female	Right	B	30/11/2016	14:08:12	64	TrialPrimaParte	phonetic	phone	1	466	2
36	21	Female	Right	B	30/11/2016	14:08:12	65	TrialPrimaParte	stubborn	stub	1	625	1
36	21	Female	Right	B	30/11/2016	14:08:12	66	TrialPrimaParte	buzzard	buzz	1	890	1
36	21	Female	Right	B	30/11/2016	14:08:12	67	TrialPrimaParte	twisty	jerk	0	620	2
36	21	Female	Right	B	30/11/2016	14:08:12	68	TrialPrimaParte	audition	audit	1	428	2
36	21	Female	Right	B	30/11/2016	14:08:12	69	TrialPrimaParte	gifted	pulp	0	560	1
36	21	Female	Right	B	30/11/2016	14:08:12	70	TrialPrimaParte	wishful	toast	0	599	2
36	21	Female	Right	B	30/11/2016	14:08:12	71	TrialPrimaParte	stilted	stilt	1	433	2
36	21	Female	Right	B	30/11/2016	14:08:12	72	TrialPrimaParte	damsel	dalp	2	487	2
36	21	Female	Right	B	30/11/2016	14:08:12	73	TrialPrimaParte	legacy	lecy	2	526	2
36	21	Female	Right	B	30/11/2016	14:08:12	74	TrialPrimaParte	chatter	trump	0	560	2
36	21	Female	Right	B	30/11/2016	14:08:12	75	TrialPrimaParte	fleeting	fleet	1	400	2
36	21	Female	Right	B	30/11/2016	14:08:12	76	TrialSecondaParte	stroke	cligh	2	781	2
36	21	Female	Right	B	30/11/2016	14:08:12	77	TrialSecondaParte	swivel	quat	2	401	2
36	21	Female	Right	B	30/11/2016	14:08:12	78	TrialSecondaParte	signal	quir	2	472	2
36	21	Female	Right	B	30/11/2016	14:08:12	79	TrialSecondaParte	colonel	colon	1	465	2
36	21	Female	Right	B	30/11/2016	14:08:12	80	TrialSecondaParte	plonking	pluny	2	509	1
36	21	Female	Right	B	30/11/2016	14:08:12	81	TrialSecondaParte	oddity	squaw	0	710	2
36	21	Female	Right	B	30/11/2016	14:08:12	82	TrialSecondaParte	child	sild	2	405	2
36	21	Female	Right	B	30/11/2016	14:08:12	83	TrialSecondaParte	revolutionise	sivert	2	420	2
36	21	Female	Right	B	30/11/2016	14:08:12	84	TrialSecondaParte	fabulous	smaply	2	553	1
36	21	Female	Right	B	30/11/2016	14:08:12	85	TrialSecondaParte	muffin	mufir	2	448	2
36	21	Female	Right	B	30/11/2016	14:08:12	86	TrialSecondaParte	answer	anwe	2	632	1
36	21	Female	Right	B	30/11/2016	14:08:12	87	TrialSecondaParte	yardage	yage	2	542	1
36	21	Female	Right	B	30/11/2016	14:08:12	88	TrialSecondaParte	courteous	court	1	578	2
36	21	Female	Right	B	30/11/2016	14:08:12	89	TrialSecondaParte	gravel	flixy	2	389	1
36	21	Female	Right	B	30/11/2016	14:08:12	90	TrialSecondaParte	thinker	beard	0	431	2
36	21	Female	Right	B	30/11/2016	14:08:12	91	TrialSecondaParte	asterix	cret	2	503	1
36	21	Female	Right	B	30/11/2016	14:08:12	92	TrialSecondaParte	inventory	invent	1	451	2
36	21	Female	Right	B	30/11/2016	14:08:12	93	TrialSecondaParte	passel	turp	2	469	1
36	21	Female	Right	B	30/11/2016	14:08:12	94	TrialSecondaParte	dreamer	dream	1	467	2
36	21	Female	Right	B	30/11/2016	14:08:12	95	TrialSecondaParte	bourbon	boun	2	472	2
36	21	Female	Right	B	30/11/2016	14:08:12	96	TrialSecondaParte	griffin	spoff	2	407	2
36	21	Female	Right	B	30/11/2016	14:08:12	97	TrialSecondaParte	decision	posig	2	616	1
36	21	Female	Right	B	30/11/2016	14:08:12	98	TrialSecondaParte	dusty	dusy	2	670	2
36	21	Female	Right	B	30/11/2016	14:08:12	99	TrialSecondaParte	formal	guilt	0	478	1
36	21	Female	Right	B	30/11/2016	14:08:12	100	TrialSecondaParte	farcical	farxy	2	518	1
36	21	Female	Right	B	30/11/2016	14:08:12	101	TrialSecondaParte	pottery	crook	0	581	2
36	21	Female	Right	B	30/11/2016	14:08:12	102	TrialSecondaParte	tricky	shove	0	571	2
36	21	Female	Right	B	30/11/2016	14:08:12	103	TrialSecondaParte	swotting	chuly	2	403	2
36	21	Female	Right	B	30/11/2016	14:08:12	104	TrialSecondaParte	moulder	moure	2	506	1
36	21	Female	Right	B	30/11/2016	14:08:12	105	TrialSecondaParte	content	conly	2	459	1
36	21	Female	Right	B	30/11/2016	14:08:12	106	TrialSecondaParte	mosaic	mip	2	418	2
36	21	Female	Right	B	30/11/2016	14:08:12	107	TrialSecondaParte	downs	risk	0	449	2
36	21	Female	Right	B	30/11/2016	14:08:12	108	TrialSecondaParte	geisha	crove	2	654	2
36	21	Female	Right	B	30/11/2016	14:08:12	109	TrialSecondaParte	original	orive	2	725	1
36	21	Female	Right	B	30/11/2016	14:08:12	110	TrialSecondaParte	gastric	waser	2	492	1
36	21	Female	Right	B	30/11/2016	14:08:12	111	TrialSecondaParte	facetious	facet	1	504	1
36	21	Female	Right	B	30/11/2016	14:08:12	112	TrialSecondaParte	employer	employ	1	484	2
36	21	Female	Right	B	30/11/2016	14:08:12	113	TrialSecondaParte	crush	bemp	2	580	1
36	21	Female	Right	B	30/11/2016	14:08:12	114	TrialSecondaParte	edible	esigh	2	649	1
36	21	Female	Right	B	30/11/2016	14:08:12	115	TrialSecondaParte	stampede	stamp	1	526	2
36	21	Female	Right	B	30/11/2016	14:08:12	116	TrialSecondaParte	acreage	acre	1	667	2
36	21	Female	Right	B	30/11/2016	14:08:12	117	TrialSecondaParte	faceless	facmod	2	502	1
36	21	Female	Right	B	30/11/2016	14:08:12	118	TrialSecondaParte	filmy	plus	0	688	2
36	21	Female	Right	B	30/11/2016	14:08:12	119	TrialSecondaParte	plaintiff	plain	1	500	2
36	21	Female	Right	B	30/11/2016	14:08:12	120	TrialSecondaParte	smelly	thuly	2	731	1
36	21	Female	Right	B	30/11/2016	14:08:12	121	TrialSecondaParte	lovers	flesh	0	430	2
36	21	Female	Right	B	30/11/2016	14:08:12	122	TrialSecondaParte	itinerary	itiner	2	565	2
36	21	Female	Right	B	30/11/2016	14:08:12	123	TrialSecondaParte	friar	blyr	2	542	1
36	21	Female	Right	B	30/11/2016	14:08:12	124	TrialSecondaParte	polite	tind	2	487	2
36	21	Female	Right	B	30/11/2016	14:08:12	125	TrialSecondaParte	amenable	amen	1	482	2
36	21	Female	Right	B	30/11/2016	14:08:12	126	TrialSecondaParte	buoyant	stir	0	673	2
36	21	Female	Right	B	30/11/2016	14:08:12	127	TrialSecondaParte	jetty	kuty	2	684	1
36	21	Female	Right	B	30/11/2016	14:08:12	128	TrialSecondaParte	killer	lalf	2	579	1
36	21	Female	Right	B	30/11/2016	14:08:12	129	TrialSecondaParte	secretary	secret	1	465	2
36	21	Female	Right	B	30/11/2016	14:08:12	130	TrialSecondaParte	olympic	olick	2	498	1
36	21	Female	Right	B	30/11/2016	14:08:12	131	TrialSecondaParte	lively	licey	2	553	2
36	21	Female	Right	B	30/11/2016	14:08:12	132	TrialSecondaParte	sandy	iron	0	553	2
36	21	Female	Right	B	30/11/2016	14:08:12	133	TrialSecondaParte	routeing	tomed	2	647	2
36	21	Female	Right	B	30/11/2016	14:08:12	134	TrialSecondaParte	alarming	alarm	1	497	2
36	21	Female	Right	B	30/11/2016	14:08:12	135	TrialSecondaParte	piratical	pirent	2	831	1
36	21	Female	Right	B	30/11/2016	14:08:12	136	TrialSecondaParte	neighbour	neigh	1	494	2
36	21	Female	Right	B	30/11/2016	14:08:12	137	TrialSecondaParte	ninety	scrap	0	571	2
36	21	Female	Right	B	30/11/2016	14:08:12	138	TrialSecondaParte	adviser	flick	0	444	2
36	21	Female	Right	B	30/11/2016	14:08:12	139	TrialSecondaParte	dealer	poet	0	541	2
36	21	Female	Right	B	30/11/2016	14:08:12	140	TrialSecondaParte	lesser	twit	0	456	2
36	21	Female	Right	B	30/11/2016	14:08:12	141	TrialSecondaParte	classic	clals	2	411	2
36	21	Female	Right	B	30/11/2016	14:08:12	142	TrialSecondaParte	talker	claf	2	676	2
36	21	Female	Right	B	30/11/2016	14:08:12	143	TrialSecondaParte	angelic	angel	1	388	2
36	21	Female	Right	B	30/11/2016	14:08:12	144	TrialSecondaParte	penguin	phorb	2	593	1
36	21	Female	Right	B	30/11/2016	14:08:12	145	TrialSecondaParte	fuselage	fuse	1	456	2
36	21	Female	Right	B	30/11/2016	14:08:12	146	TrialSecondaParte	snobby	snool	2	713	1
36	21	Female	Right	B	30/11/2016	14:08:12	147	TrialSecondaParte	heroic	soft	0	526	2
36	21	Female	Right	B	30/11/2016	14:08:12	148	TrialSecondaParte	legendary	legend	1	439	2
36	21	Female	Right	B	30/11/2016	14:08:12	149	TrialSecondaParte	biscuit	bist	2	357	2
36	21	Female	Right	B	30/11/2016	14:08:12	150	TrialSecondaParte	leaflet	organ	0	446	2
36	21	Female	Right	B	30/11/2016	14:08:12	151	TrialTerzaParte	reliable	blidar	2	651	2
36	21	Female	Right	B	30/11/2016	14:08:12	152	TrialTerzaParte	lessen	bomb	0	334	2
36	21	Female	Right	B	30/11/2016	14:08:12	153	TrialTerzaParte	cuffs	glad	0	394	1
36	21	Female	Right	B	30/11/2016	14:08:12	154	TrialTerzaParte	highlight	gylpo	2	544	1
36	21	Female	Right	B	30/11/2016	14:08:12	155	TrialTerzaParte	plumage	plum	1	508	2
36	21	Female	Right	B	30/11/2016	14:08:12	156	TrialTerzaParte	armoury	arwor	2	465	1
36	21	Female	Right	B	30/11/2016	14:08:12	157	TrialTerzaParte	discern	disc	1	409	2
36	21	Female	Right	B	30/11/2016	14:08:12	158	TrialTerzaParte	engage	yurd	2	492	1
36	21	Female	Right	B	30/11/2016	14:08:12	159	TrialTerzaParte	firmly	heave	0	388	2
36	21	Female	Right	B	30/11/2016	14:08:12	160	TrialTerzaParte	parenthesis	parent	1	450	2
36	21	Female	Right	B	30/11/2016	14:08:12	161	TrialTerzaParte	paternal	siter	2	634	1
36	21	Female	Right	B	30/11/2016	14:08:12	162	TrialTerzaParte	raffle	rafel	2	592	1
36	21	Female	Right	B	30/11/2016	14:08:12	163	TrialTerzaParte	teacher	teach	1	411	2
36	21	Female	Right	B	30/11/2016	14:08:12	164	TrialTerzaParte	passant	pasks	2	451	2
36	21	Female	Right	B	30/11/2016	14:08:12	165	TrialTerzaParte	drunkard	drunk	1	427	2
36	21	Female	Right	B	30/11/2016	14:08:12	166	TrialTerzaParte	dysentery	ranin	2	465	2
36	21	Female	Right	B	30/11/2016	14:08:12	167	TrialTerzaParte	twelfth	smug	0	481	2
36	21	Female	Right	B	30/11/2016	14:08:12	168	TrialTerzaParte	hourly	snip	0	450	2
36	21	Female	Right	B	30/11/2016	14:08:12	169	TrialTerzaParte	quieten	quiet	1	436	2
36	21	Female	Right	B	30/11/2016	14:08:12	170	TrialTerzaParte	cloudless	cloud	1	378	2
36	21	Female	Right	B	30/11/2016	14:08:12	171	TrialTerzaParte	religious	sisby	2	334	2
36	21	Female	Right	B	30/11/2016	14:08:12	172	TrialTerzaParte	desert	dert	2	370	2
36	21	Female	Right	B	30/11/2016	14:08:12	173	TrialTerzaParte	tamponade	ruffy	2	385	2
36	21	Female	Right	B	30/11/2016	14:08:12	174	TrialTerzaParte	grueling	gruel	1	512	1
36	21	Female	Right	B	30/11/2016	14:08:12	175	TrialTerzaParte	category	cagre	2	476	2
36	21	Female	Right	B	30/11/2016	14:08:12	176	TrialTerzaParte	unspoilt	nalky	2	827	1
36	21	Female	Right	B	30/11/2016	14:08:12	177	TrialTerzaParte	neutron	whese	2	508	2
36	21	Female	Right	B	30/11/2016	14:08:12	178	TrialTerzaParte	dietary	diet	1	391	2
36	21	Female	Right	B	30/11/2016	14:08:12	179	TrialTerzaParte	portal	balp	2	560	1
36	21	Female	Right	B	30/11/2016	14:08:12	180	TrialTerzaParte	brisket	brisk	1	571	2
36	21	Female	Right	B	30/11/2016	14:08:12	181	TrialTerzaParte	critical	critic	1	411	2
36	21	Female	Right	B	30/11/2016	14:08:12	182	TrialTerzaParte	snobbery	snotty	2	426	2
36	21	Female	Right	B	30/11/2016	14:08:12	183	TrialTerzaParte	repertory	repty	2	740	2
36	21	Female	Right	B	30/11/2016	14:08:12	184	TrialTerzaParte	graphic	blamp	2	464	2
36	21	Female	Right	B	30/11/2016	14:08:12	185	TrialTerzaParte	muffler	coast	0	321	2
36	21	Female	Right	B	30/11/2016	14:08:12	186	TrialTerzaParte	genetic	genth	2	337	2
36	21	Female	Right	B	30/11/2016	14:08:12	187	TrialTerzaParte	unique	unzed	2	580	1
36	21	Female	Right	B	30/11/2016	14:08:12	188	TrialTerzaParte	government	govern	1	456	2
36	21	Female	Right	B	30/11/2016	14:08:12	189	TrialTerzaParte	sovereign	sovign	2	446	2
36	21	Female	Right	B	30/11/2016	14:08:12	190	TrialTerzaParte	active	blood	0	413	2
36	21	Female	Right	B	30/11/2016	14:08:12	191	TrialTerzaParte	watery	cream	0	445	2
36	21	Female	Right	B	30/11/2016	14:08:12	192	TrialTerzaParte	ranger	view	0	471	2
36	21	Female	Right	B	30/11/2016	14:08:12	193	TrialTerzaParte	upstart	pumy	2	605	1
36	21	Female	Right	B	30/11/2016	14:08:12	194	TrialTerzaParte	criminal	huare	2	684	1
36	21	Female	Right	B	30/11/2016	14:08:12	195	TrialTerzaParte	electron	elect	1	392	2
36	21	Female	Right	B	30/11/2016	14:08:12	196	TrialTerzaParte	folder	heart	0	399	2
36	21	Female	Right	B	30/11/2016	14:08:12	197	TrialTerzaParte	lethal	lerd	2	542	1
36	21	Female	Right	B	30/11/2016	14:08:12	198	TrialTerzaParte	kinetic	kinse	2	464	1
36	21	Female	Right	B	30/11/2016	14:08:12	199	TrialTerzaParte	maternal	malern	2	525	1
36	21	Female	Right	B	30/11/2016	14:08:12	200	TrialTerzaParte	skylight	skigh	2	509	1
36	21	Female	Right	B	30/11/2016	14:08:12	201	TrialTerzaParte	cheaply	twin	0	445	2
36	21	Female	Right	B	30/11/2016	14:08:12	202	TrialTerzaParte	factual	board	0	423	2
36	21	Female	Right	B	30/11/2016	14:08:12	203	TrialTerzaParte	absence	agsel	2	467	1
36	21	Female	Right	B	30/11/2016	14:08:12	204	TrialTerzaParte	fixture	strul	2	521	1
36	21	Female	Right	B	30/11/2016	14:08:12	205	TrialTerzaParte	miller	gloom	0	482	2
36	21	Female	Right	B	30/11/2016	14:08:12	206	TrialTerzaParte	blush	blif	2	548	1
36	21	Female	Right	B	30/11/2016	14:08:12	207	TrialTerzaParte	supplant	plosy	2	457	1
36	21	Female	Right	B	30/11/2016	14:08:12	208	TrialTerzaParte	scanner	rast	2	495	1
36	21	Female	Right	B	30/11/2016	14:08:12	209	TrialTerzaParte	surgeon	surge	1	582	2
36	21	Female	Right	B	30/11/2016	14:08:12	210	TrialTerzaParte	rancour	brits	2	455	2
36	21	Female	Right	B	30/11/2016	14:08:12	211	TrialTerzaParte	really	numb	0	608	2
36	21	Female	Right	B	30/11/2016	14:08:12	212	TrialTerzaParte	sensuous	secly	2	489	1
36	21	Female	Right	B	30/11/2016	14:08:12	213	TrialTerzaParte	ethereal	ether	1	767	2
36	21	Female	Right	B	30/11/2016	14:08:12	214	TrialTerzaParte	centimetres	censar	2	466	2
36	21	Female	Right	B	30/11/2016	14:08:12	215	TrialTerzaParte	fatal	fids	2	511	1
36	21	Female	Right	B	30/11/2016	14:08:12	216	TrialTerzaParte	utter	uls	2	421	1
36	21	Female	Right	B	30/11/2016	14:08:12	217	TrialTerzaParte	oxygenate	oxygen	1	615	2
36	21	Female	Right	B	30/11/2016	14:08:12	218	TrialTerzaParte	acutely	nymph	0	690	1
36	21	Female	Right	B	30/11/2016	14:08:12	219	TrialTerzaParte	nincompoops	ninpoo	2	576	1
36	21	Female	Right	B	30/11/2016	14:08:12	220	TrialTerzaParte	against	again	1	435	2
36	21	Female	Right	B	30/11/2016	14:08:12	221	TrialTerzaParte	silken	tuft	0	628	1
36	21	Female	Right	B	30/11/2016	14:08:12	222	TrialTerzaParte	country	count	1	722	2
36	21	Female	Right	B	30/11/2016	14:08:12	223	TrialTerzaParte	angler	treat	0	506	2
36	21	Female	Right	B	30/11/2016	14:08:12	224	TrialTerzaParte	infantry	infant	1	392	2
36	21	Female	Right	B	30/11/2016	14:08:12	225	TrialTerzaParte	greenery	green	1	375	2
36	21	Female	Right	B	30/11/2016	14:08:12	226	TrialQuartaParte	thorny	marsh	0	540	2
36	21	Female	Right	B	30/11/2016	14:08:12	227	TrialQuartaParte	hatchery	fighy	2	341	2
36	21	Female	Right	B	30/11/2016	14:08:12	228	TrialQuartaParte	basilisk	basil	1	467	1
36	21	Female	Right	B	30/11/2016	14:08:12	229	TrialQuartaParte	trashy	rell	2	445	1
36	21	Female	Right	B	30/11/2016	14:08:12	230	TrialQuartaParte	haulier	halfe	2	359	1
36	21	Female	Right	B	30/11/2016	14:08:12	231	TrialQuartaParte	harden	filth	0	508	1
36	21	Female	Right	B	30/11/2016	14:08:12	232	TrialQuartaParte	roller	quart	0	433	2
36	21	Female	Right	B	30/11/2016	14:08:12	233	TrialQuartaParte	happy	sigh	0	441	2
36	21	Female	Right	B	30/11/2016	14:08:12	234	TrialQuartaParte	fishy	putt	0	392	2
36	21	Female	Right	B	30/11/2016	14:08:12	235	TrialQuartaParte	prudish	force	0	480	2
36	21	Female	Right	B	30/11/2016	14:08:12	236	TrialQuartaParte	winger	pluck	0	444	2
36	21	Female	Right	B	30/11/2016	14:08:12	237	TrialQuartaParte	pottage	posch	2	349	2
36	21	Female	Right	B	30/11/2016	14:08:12	238	TrialQuartaParte	sudden	verty	2	485	2
36	21	Female	Right	B	30/11/2016	14:08:12	239	TrialQuartaParte	widen	amp	0	457	2
36	21	Female	Right	B	30/11/2016	14:08:12	240	TrialQuartaParte	gluteal	abtle	2	426	2
36	21	Female	Right	B	30/11/2016	14:08:12	241	TrialQuartaParte	surface	surf	1	420	2
36	21	Female	Right	B	30/11/2016	14:08:12	242	TrialQuartaParte	thinly	golf	0	468	2
36	21	Female	Right	B	30/11/2016	14:08:12	243	TrialQuartaParte	extract	extra	1	393	2
36	21	Female	Right	B	30/11/2016	14:08:12	244	TrialQuartaParte	keeper	gala	0	463	2
36	21	Female	Right	B	30/11/2016	14:08:12	245	TrialQuartaParte	beastly	widow	0	471	2
36	21	Female	Right	B	30/11/2016	14:08:12	246	TrialQuartaParte	splinter	splint	1	387	2
36	21	Female	Right	B	30/11/2016	14:08:12	247	TrialQuartaParte	veteran	venic	2	384	2
36	21	Female	Right	B	30/11/2016	14:08:12	248	TrialQuartaParte	renewable	renew	1	370	2
36	21	Female	Right	B	30/11/2016	14:08:12	249	TrialQuartaParte	hydration	povic	2	352	2
36	21	Female	Right	B	30/11/2016	14:08:12	250	TrialQuartaParte	cousin	coul	2	365	2
36	21	Female	Right	B	30/11/2016	14:08:12	251	TrialQuartaParte	dragon	dron	2	559	2
36	21	Female	Right	B	30/11/2016	14:08:12	252	TrialQuartaParte	itchy	shun	0	776	2
36	21	Female	Right	B	30/11/2016	14:08:12	253	TrialQuartaParte	sleet	slit	2	507	2
36	21	Female	Right	B	30/11/2016	14:08:12	254	TrialQuartaParte	turmoil	furm	2	762	1
36	21	Female	Right	B	30/11/2016	14:08:12	255	TrialQuartaParte	others	unit	0	542	2
36	21	Female	Right	B	30/11/2016	14:08:12	256	TrialQuartaParte	finely	chill	0	568	2
36	21	Female	Right	B	30/11/2016	14:08:12	257	TrialQuartaParte	abstain	abter	2	1079	2
36	21	Female	Right	B	30/11/2016	14:08:12	258	TrialQuartaParte	question	quest	1	373	2
36	21	Female	Right	B	30/11/2016	14:08:12	259	TrialQuartaParte	brothel	broth	1	378	2
36	21	Female	Right	B	30/11/2016	14:08:12	260	TrialQuartaParte	grouse	gruf	2	680	1
36	21	Female	Right	B	30/11/2016	14:08:12	261	TrialQuartaParte	appendix	append	1	416	2
36	21	Female	Right	B	30/11/2016	14:08:12	262	TrialQuartaParte	fibrosis	shuar	2	619	1
36	21	Female	Right	B	30/11/2016	14:08:12	263	TrialQuartaParte	baronet	baron	1	458	1
36	21	Female	Right	B	30/11/2016	14:08:12	264	TrialQuartaParte	artistry	artist	1	468	2
36	21	Female	Right	B	30/11/2016	14:08:12	265	TrialQuartaParte	prosecution	leler	2	465	1
36	21	Female	Right	B	30/11/2016	14:08:12	266	TrialQuartaParte	opposition	nunfy	2	568	1
36	21	Female	Right	B	30/11/2016	14:08:12	267	TrialQuartaParte	crikey	brize	2	644	2
36	21	Female	Right	B	30/11/2016	14:08:12	268	TrialQuartaParte	syphilis	ruar	2	593	1
36	21	Female	Right	B	30/11/2016	14:08:12	269	TrialQuartaParte	touchy	fizz	0	603	1
36	21	Female	Right	B	30/11/2016	14:08:12	270	TrialQuartaParte	tract	trep	2	524	1
36	21	Female	Right	B	30/11/2016	14:08:12	271	TrialQuartaParte	linkage	flion	2	519	1
36	21	Female	Right	B	30/11/2016	14:08:12	272	TrialQuartaParte	crummy	meye	2	493	1
36	21	Female	Right	B	30/11/2016	14:08:12	273	TrialQuartaParte	phoenix	blont	2	889	1
36	21	Female	Right	B	30/11/2016	14:08:12	274	TrialQuartaParte	illicit	ilkis	2	374	1
36	21	Female	Right	B	30/11/2016	14:08:12	275	TrialQuartaParte	editor	plan	0	432	2
36	21	Female	Right	B	30/11/2016	14:08:12	276	TrialQuartaParte	international	intern	1	392	2
36	21	Female	Right	B	30/11/2016	14:08:12	277	TrialQuartaParte	brutal	helm	0	705	2
36	21	Female	Right	B	30/11/2016	14:08:12	278	TrialQuartaParte	vigilant	vigan	2	568	1
36	21	Female	Right	B	30/11/2016	14:08:12	279	TrialQuartaParte	spindly	tact	0	398	2
36	21	Female	Right	B	30/11/2016	14:08:12	280	TrialQuartaParte	misty	stun	0	492	1
36	21	Female	Right	B	30/11/2016	14:08:12	281	TrialQuartaParte	floater	float	1	378	2
36	21	Female	Right	B	30/11/2016	14:08:12	282	TrialQuartaParte	tripper	mourn	0	509	1
36	21	Female	Right	B	30/11/2016	14:08:12	283	TrialQuartaParte	manual	mals	2	539	1
36	21	Female	Right	B	30/11/2016	14:08:12	284	TrialQuartaParte	vivacious	vicis	2	592	2
36	21	Female	Right	B	30/11/2016	14:08:12	285	TrialQuartaParte	command	comma	1	425	2
36	21	Female	Right	B	30/11/2016	14:08:12	286	TrialQuartaParte	scullery	scull	1	751	2
36	21	Female	Right	B	30/11/2016	14:08:12	287	TrialQuartaParte	gaiety	harse	2	497	2
36	21	Female	Right	B	30/11/2016	14:08:12	288	TrialQuartaParte	awaken	tood	2	428	2
36	21	Female	Right	B	30/11/2016	14:08:12	289	TrialQuartaParte	feudal	arch	0	480	1
36	21	Female	Right	B	30/11/2016	14:08:12	290	TrialQuartaParte	weekly	rabbi	0	536	1
36	21	Female	Right	B	30/11/2016	14:08:12	291	TrialQuartaParte	culprit	cuti	2	528	1
36	21	Female	Right	B	30/11/2016	14:08:12	292	TrialQuartaParte	rebound	cous	2	468	1
36	21	Female	Right	B	30/11/2016	14:08:12	293	TrialQuartaParte	merrier	merks	2	482	1
36	21	Female	Right	B	30/11/2016	14:08:12	294	TrialQuartaParte	ceramic	cerbs	2	581	1
36	21	Female	Right	B	30/11/2016	14:08:12	295	TrialQuartaParte	vengeful	cherb	2	731	1
36	21	Female	Right	B	30/11/2016	14:08:12	296	TrialQuartaParte	fanatic	fanty	2	632	1
36	21	Female	Right	B	30/11/2016	14:08:12	297	TrialQuartaParte	gently	pub	0	487	2
36	21	Female	Right	B	30/11/2016	14:08:12	298	TrialQuartaParte	summit	sutty	2	360	2
36	21	Female	Right	B	30/11/2016	14:08:12	299	TrialQuartaParte	stressful	abgaid	2	541	1
36	21	Female	Right	B	30/11/2016	14:08:12	300	TrialQuartaParte	northern	north	1	449	2
