Subject	Age	Gender	Handedness	Rotation	Data	OraStart	TrialCount	TrialType	Prime	Target	Relatedness	rt	Resp
74	21	Female	Right	B	18/09/2017	13:38:23	1	Prova	wellness	well	4	2001	-1
74	21	Female	Right	B	18/09/2017	13:38:23	2	Prova	homeless	home	4	980	2
74	21	Female	Right	B	18/09/2017	13:38:23	3	Prova	tricky	tricker	4	1053	1
74	21	Female	Right	B	18/09/2017	13:38:23	4	Prova	character	char	4	1061	2
74	21	Female	Right	B	18/09/2017	13:38:23	5	Prova	translater	pulter	4	976	1
74	21	Female	Right	B	18/09/2017	13:38:23	6	Prova2	escape	exat	4	678	1
74	21	Female	Right	B	18/09/2017	13:38:23	7	Prova2	investigator	invest	4	916	2
74	21	Female	Right	B	18/09/2017	13:38:23	8	Prova2	examiner	exam	4	1003	2
74	21	Female	Right	B	18/09/2017	13:38:23	9	Prova2	topic	top	4	605	2
74	21	Female	Right	B	18/09/2017	13:38:23	1	Warmup	unpack	pack	5	616	2
74	21	Female	Right	B	18/09/2017	13:38:23	2	Warmup	tartare	tariff	5	1636	1
74	21	Female	Right	B	18/09/2017	13:38:23	3	Warmup	cowrie	sturms	5	1038	1
74	21	Female	Right	B	18/09/2017	13:38:23	4	Warmup	cortex	newbie	5	707	1
74	21	Female	Right	B	18/09/2017	13:38:23	5	Warmup	pullma	pulm	5	950	1
74	21	Female	Right	B	18/09/2017	13:38:23	1	TrialPrimaParte	pummel	syly	2	705	1
74	21	Female	Right	B	18/09/2017	13:38:23	2	TrialPrimaParte	grouse	gruf	2	677	1
74	21	Female	Right	B	18/09/2017	13:38:23	3	TrialPrimaParte	discern	disc	1	840	2
74	21	Female	Right	B	18/09/2017	13:38:23	4	TrialPrimaParte	thinker	beard	0	979	2
74	21	Female	Right	B	18/09/2017	13:38:23	5	TrialPrimaParte	weekly	rabbi	0	762	1
74	21	Female	Right	B	18/09/2017	13:38:23	6	TrialPrimaParte	paternal	siter	2	948	1
74	21	Female	Right	B	18/09/2017	13:38:23	7	TrialPrimaParte	inventory	invent	1	923	2
74	21	Female	Right	B	18/09/2017	13:38:23	8	TrialPrimaParte	upstart	pumy	2	646	1
74	21	Female	Right	B	18/09/2017	13:38:23	9	TrialPrimaParte	manual	mals	2	620	1
74	21	Female	Right	B	18/09/2017	13:38:23	10	TrialPrimaParte	fisher	fims	2	1083	1
74	21	Female	Right	B	18/09/2017	13:38:23	11	TrialPrimaParte	religious	sisby	2	659	1
74	21	Female	Right	B	18/09/2017	13:38:23	12	TrialPrimaParte	merrier	merks	2	644	1
74	21	Female	Right	B	18/09/2017	13:38:23	13	TrialPrimaParte	cheaply	twin	0	826	2
74	21	Female	Right	B	18/09/2017	13:38:23	14	TrialPrimaParte	gastric	waser	2	764	1
74	21	Female	Right	B	18/09/2017	13:38:23	15	TrialPrimaParte	graphic	blamp	2	847	1
74	21	Female	Right	B	18/09/2017	13:38:23	16	TrialPrimaParte	command	comma	1	1077	1
74	21	Female	Right	B	18/09/2017	13:38:23	17	TrialPrimaParte	brutal	helm	0	953	2
74	21	Female	Right	B	18/09/2017	13:38:23	18	TrialPrimaParte	summit	sutty	2	692	1
74	21	Female	Right	B	18/09/2017	13:38:23	19	TrialPrimaParte	gaiety	harse	2	801	1
74	21	Female	Right	B	18/09/2017	13:38:23	20	TrialPrimaParte	nincompoops	ninpoo	2	681	1
74	21	Female	Right	B	18/09/2017	13:38:23	21	TrialPrimaParte	alarming	alarm	1	753	2
74	21	Female	Right	B	18/09/2017	13:38:23	22	TrialPrimaParte	edible	esigh	2	780	1
74	21	Female	Right	B	18/09/2017	13:38:23	23	TrialPrimaParte	sleet	slit	2	815	2
74	21	Female	Right	B	18/09/2017	13:38:23	24	TrialPrimaParte	investigate	invest	1	796	2
74	21	Female	Right	B	18/09/2017	13:38:23	25	TrialPrimaParte	spindly	tact	0	653	1
74	21	Female	Right	B	18/09/2017	13:38:23	26	TrialPrimaParte	penguin	phorb	2	675	1
74	21	Female	Right	B	18/09/2017	13:38:23	27	TrialPrimaParte	secretary	secret	1	714	2
74	21	Female	Right	B	18/09/2017	13:38:23	28	TrialPrimaParte	gently	pub	0	659	2
74	21	Female	Right	B	18/09/2017	13:38:23	29	TrialPrimaParte	basilisk	basil	1	848	1
74	21	Female	Right	B	18/09/2017	13:38:23	30	TrialPrimaParte	really	numb	0	817	2
74	21	Female	Right	B	18/09/2017	13:38:23	31	TrialPrimaParte	content	conly	2	913	1
74	21	Female	Right	B	18/09/2017	13:38:23	32	TrialPrimaParte	sovereign	sovign	2	728	1
74	21	Female	Right	B	18/09/2017	13:38:23	33	TrialPrimaParte	plumage	plum	1	1329	2
74	21	Female	Right	B	18/09/2017	13:38:23	34	TrialPrimaParte	acutely	nymph	0	671	1
74	21	Female	Right	B	18/09/2017	13:38:23	35	TrialPrimaParte	crush	bemp	2	760	1
74	21	Female	Right	B	18/09/2017	13:38:23	36	TrialPrimaParte	critical	critic	1	786	2
74	21	Female	Right	B	18/09/2017	13:38:23	37	TrialPrimaParte	prudish	force	0	668	2
74	21	Female	Right	B	18/09/2017	13:38:23	38	TrialPrimaParte	manly	weir	0	924	1
74	21	Female	Right	B	18/09/2017	13:38:23	39	TrialPrimaParte	country	count	1	749	2
74	21	Female	Right	B	18/09/2017	13:38:23	40	TrialPrimaParte	rational	ration	1	910	2
74	21	Female	Right	B	18/09/2017	13:38:23	41	TrialPrimaParte	friar	blyr	2	658	1
74	21	Female	Right	B	18/09/2017	13:38:23	42	TrialPrimaParte	griffin	spoff	2	823	1
74	21	Female	Right	B	18/09/2017	13:38:23	43	TrialPrimaParte	demonstrate	demon	1	734	2
74	21	Female	Right	B	18/09/2017	13:38:23	44	TrialPrimaParte	farcical	farxy	2	667	1
74	21	Female	Right	B	18/09/2017	13:38:23	45	TrialPrimaParte	advisory	advock	2	701	1
74	21	Female	Right	B	18/09/2017	13:38:23	46	TrialPrimaParte	sandy	iron	0	710	2
74	21	Female	Right	B	18/09/2017	13:38:23	47	TrialPrimaParte	folder	heart	0	665	2
74	21	Female	Right	B	18/09/2017	13:38:23	48	TrialPrimaParte	tricky	shove	0	760	1
74	21	Female	Right	B	18/09/2017	13:38:23	49	TrialPrimaParte	mosaic	mip	2	652	1
74	21	Female	Right	B	18/09/2017	13:38:23	50	TrialPrimaParte	ninety	scrap	0	1312	1
74	21	Female	Right	B	18/09/2017	13:38:23	51	TrialPrimaParte	fuselage	fuse	1	1036	1
74	21	Female	Right	B	18/09/2017	13:38:23	52	TrialPrimaParte	cranky	crony	2	869	1
74	21	Female	Right	B	18/09/2017	13:38:23	53	TrialPrimaParte	buoyant	stir	0	1167	1
74	21	Female	Right	B	18/09/2017	13:38:23	54	TrialPrimaParte	cloudless	cloud	1	652	2
74	21	Female	Right	B	18/09/2017	13:38:23	55	TrialPrimaParte	skylight	skigh	2	836	1
74	21	Female	Right	B	18/09/2017	13:38:23	56	TrialPrimaParte	passant	pasks	2	675	1
74	21	Female	Right	B	18/09/2017	13:38:23	57	TrialPrimaParte	prosecution	leler	2	715	1
74	21	Female	Right	B	18/09/2017	13:38:23	58	TrialPrimaParte	swotting	chuly	2	654	1
74	21	Female	Right	B	18/09/2017	13:38:23	59	TrialPrimaParte	vertical	verks	2	763	1
74	21	Female	Right	B	18/09/2017	13:38:23	60	TrialPrimaParte	facetious	facet	1	1227	1
74	21	Female	Right	B	18/09/2017	13:38:23	61	TrialPrimaParte	unique	unzed	2	671	1
74	21	Female	Right	B	18/09/2017	13:38:23	62	TrialPrimaParte	winger	pluck	0	994	1
74	21	Female	Right	B	18/09/2017	13:38:23	63	TrialPrimaParte	scalding	scald	1	1008	1
74	21	Female	Right	B	18/09/2017	13:38:23	64	TrialPrimaParte	formal	guilt	0	939	2
74	21	Female	Right	B	18/09/2017	13:38:23	65	TrialPrimaParte	engage	yurd	2	1227	1
74	21	Female	Right	B	18/09/2017	13:38:23	66	TrialPrimaParte	neighbour	neigh	1	1007	2
74	21	Female	Right	B	18/09/2017	13:38:23	67	TrialPrimaParte	armoury	arwor	2	694	1
74	21	Female	Right	B	18/09/2017	13:38:23	68	TrialPrimaParte	turmoil	furm	2	794	1
74	21	Female	Right	B	18/09/2017	13:38:23	69	TrialPrimaParte	answer	anwe	2	687	1
74	21	Female	Right	B	18/09/2017	13:38:23	70	TrialPrimaParte	smelly	thuly	2	1100	1
74	21	Female	Right	B	18/09/2017	13:38:23	71	TrialPrimaParte	harden	filth	0	1014	1
74	21	Female	Right	B	18/09/2017	13:38:23	72	TrialPrimaParte	fibrosis	shuar	2	809	1
74	21	Female	Right	B	18/09/2017	13:38:23	73	TrialPrimaParte	unspoilt	nalky	2	1348	2
74	21	Female	Right	B	18/09/2017	13:38:23	74	TrialPrimaParte	frosty	sign	0	728	2
74	21	Female	Right	B	18/09/2017	13:38:23	75	TrialPrimaParte	within	earl	0	1215	2
74	21	Female	Right	B	18/09/2017	13:38:23	76	TrialSecondaParte	crikey	brize	2	1149	1
74	21	Female	Right	B	18/09/2017	13:38:23	77	TrialSecondaParte	surgeon	surge	1	1421	2
74	21	Female	Right	B	18/09/2017	13:38:23	78	TrialSecondaParte	cryptic	crypt	1	915	1
74	21	Female	Right	B	18/09/2017	13:38:23	79	TrialSecondaParte	vengeful	cherb	2	890	1
74	21	Female	Right	B	18/09/2017	13:38:23	80	TrialSecondaParte	leftist	bulb	0	1426	2
74	21	Female	Right	B	18/09/2017	13:38:23	81	TrialSecondaParte	tract	trep	2	931	1
74	21	Female	Right	B	18/09/2017	13:38:23	82	TrialSecondaParte	power	mord	2	735	1
74	21	Female	Right	B	18/09/2017	13:38:23	83	TrialSecondaParte	gravel	flixy	2	681	1
74	21	Female	Right	B	18/09/2017	13:38:23	84	TrialSecondaParte	cuffs	glad	0	779	2
74	21	Female	Right	B	18/09/2017	13:38:23	85	TrialSecondaParte	parenthesis	parent	1	793	2
74	21	Female	Right	B	18/09/2017	13:38:23	86	TrialSecondaParte	itchy	shun	0	697	1
74	21	Female	Right	B	18/09/2017	13:38:23	87	TrialSecondaParte	talker	claf	2	765	1
74	21	Female	Right	B	18/09/2017	13:38:23	88	TrialSecondaParte	amenable	amen	1	701	2
74	21	Female	Right	B	18/09/2017	13:38:23	89	TrialSecondaParte	hydration	povic	2	646	1
74	21	Female	Right	B	18/09/2017	13:38:23	90	TrialSecondaParte	scanner	rast	2	982	2
74	21	Female	Right	B	18/09/2017	13:38:23	91	TrialSecondaParte	faceless	facmod	2	832	1
74	21	Female	Right	B	18/09/2017	13:38:23	92	TrialSecondaParte	heroic	soft	0	652	2
74	21	Female	Right	B	18/09/2017	13:38:23	93	TrialSecondaParte	jetty	kuty	2	797	1
74	21	Female	Right	B	18/09/2017	13:38:23	94	TrialSecondaParte	genetic	genth	2	791	1
74	21	Female	Right	B	18/09/2017	13:38:23	95	TrialSecondaParte	vainly	craft	0	798	2
74	21	Female	Right	B	18/09/2017	13:38:23	96	TrialSecondaParte	clanger	spant	2	769	1
74	21	Female	Right	B	18/09/2017	13:38:23	97	TrialSecondaParte	downs	risk	0	726	2
74	21	Female	Right	B	18/09/2017	13:38:23	98	TrialSecondaParte	decision	posig	2	718	1
74	21	Female	Right	B	18/09/2017	13:38:23	99	TrialSecondaParte	silken	tuft	0	846	1
74	21	Female	Right	B	18/09/2017	13:38:23	100	TrialSecondaParte	courteous	court	1	693	2
74	21	Female	Right	B	18/09/2017	13:38:23	101	TrialSecondaParte	ethereal	ether	1	1039	2
74	21	Female	Right	B	18/09/2017	13:38:23	102	TrialSecondaParte	stilted	stilt	1	1053	1
74	21	Female	Right	B	18/09/2017	13:38:23	103	TrialSecondaParte	plastic	spaxe	2	761	1
74	21	Female	Right	B	18/09/2017	13:38:23	104	TrialSecondaParte	department	depart	1	857	2
74	21	Female	Right	B	18/09/2017	13:38:23	105	TrialSecondaParte	deficit	dety	2	824	1
74	21	Female	Right	B	18/09/2017	13:38:23	106	TrialSecondaParte	passel	turp	2	829	1
74	21	Female	Right	B	18/09/2017	13:38:23	107	TrialSecondaParte	twisty	jerk	0	774	2
74	21	Female	Right	B	18/09/2017	13:38:23	108	TrialSecondaParte	legacy	lecy	2	818	1
74	21	Female	Right	B	18/09/2017	13:38:23	109	TrialSecondaParte	golden	free	0	655	2
74	21	Female	Right	B	18/09/2017	13:38:23	110	TrialSecondaParte	child	sild	2	952	1
74	21	Female	Right	B	18/09/2017	13:38:23	111	TrialSecondaParte	pottery	crook	0	803	1
74	21	Female	Right	B	18/09/2017	13:38:23	112	TrialSecondaParte	sensuous	secly	2	990	1
74	21	Female	Right	B	18/09/2017	13:38:23	113	TrialSecondaParte	ranger	view	0	748	2
74	21	Female	Right	B	18/09/2017	13:38:23	114	TrialSecondaParte	maternal	malern	2	967	1
74	21	Female	Right	B	18/09/2017	13:38:23	115	TrialSecondaParte	factual	board	0	682	2
74	21	Female	Right	B	18/09/2017	13:38:23	116	TrialSecondaParte	appendix	append	1	861	1
74	21	Female	Right	B	18/09/2017	13:38:23	117	TrialSecondaParte	oddity	squaw	0	1010	1
74	21	Female	Right	B	18/09/2017	13:38:23	118	TrialSecondaParte	abstain	abter	2	838	1
74	21	Female	Right	B	18/09/2017	13:38:23	119	TrialSecondaParte	miller	gloom	0	953	1
74	21	Female	Right	B	18/09/2017	13:38:23	120	TrialSecondaParte	prayer	butt	0	791	2
74	21	Female	Right	B	18/09/2017	13:38:23	121	TrialSecondaParte	twelfth	smug	0	912	1
74	21	Female	Right	B	18/09/2017	13:38:23	122	TrialSecondaParte	dealer	poet	0	739	2
74	21	Female	Right	B	18/09/2017	13:38:23	123	TrialSecondaParte	cousin	coul	2	984	1
74	21	Female	Right	B	18/09/2017	13:38:23	124	TrialSecondaParte	active	blood	0	674	2
74	21	Female	Right	B	18/09/2017	13:38:23	125	TrialSecondaParte	ambush	amshy	2	660	1
74	21	Female	Right	B	18/09/2017	13:38:23	126	TrialSecondaParte	quieten	quiet	1	651	2
74	21	Female	Right	B	18/09/2017	13:38:23	127	TrialSecondaParte	raffle	rafel	2	616	1
74	21	Female	Right	B	18/09/2017	13:38:23	128	TrialSecondaParte	coyness	whisk	0	1026	1
74	21	Female	Right	B	18/09/2017	13:38:23	129	TrialSecondaParte	beastly	widow	0	931	1
74	21	Female	Right	B	18/09/2017	13:38:23	130	TrialSecondaParte	signal	quir	2	710	1
74	21	Female	Right	B	18/09/2017	13:38:23	131	TrialSecondaParte	tamponade	ruffy	2	917	1
74	21	Female	Right	B	18/09/2017	13:38:23	132	TrialSecondaParte	illicit	ilkis	2	636	1
74	21	Female	Right	B	18/09/2017	13:38:23	133	TrialSecondaParte	blush	blif	2	882	1
74	21	Female	Right	B	18/09/2017	13:38:23	134	TrialSecondaParte	others	unit	0	790	2
74	21	Female	Right	B	18/09/2017	13:38:23	135	TrialSecondaParte	phoenix	blont	2	1205	2
74	21	Female	Right	B	18/09/2017	13:38:23	136	TrialSecondaParte	stressful	abgaid	2	1156	1
74	21	Female	Right	B	18/09/2017	13:38:23	137	TrialSecondaParte	cookery	train	0	755	2
74	21	Female	Right	B	18/09/2017	13:38:23	138	TrialSecondaParte	portal	balp	2	598	1
74	21	Female	Right	B	18/09/2017	13:38:23	139	TrialSecondaParte	phonetic	phone	1	638	2
74	21	Female	Right	B	18/09/2017	13:38:23	140	TrialSecondaParte	revolutionise	sivert	2	611	1
74	21	Female	Right	B	18/09/2017	13:38:23	141	TrialSecondaParte	surface	surf	1	683	2
74	21	Female	Right	B	18/09/2017	13:38:23	142	TrialSecondaParte	repertory	repty	2	857	1
74	21	Female	Right	B	18/09/2017	13:38:23	143	TrialSecondaParte	utter	uls	2	615	1
74	21	Female	Right	B	18/09/2017	13:38:23	144	TrialSecondaParte	pottage	posch	2	817	1
74	21	Female	Right	B	18/09/2017	13:38:23	145	TrialSecondaParte	employer	employ	1	803	2
74	21	Female	Right	B	18/09/2017	13:38:23	146	TrialSecondaParte	baronet	baron	1	761	1
74	21	Female	Right	B	18/09/2017	13:38:23	147	TrialSecondaParte	hourly	snip	0	849	1
74	21	Female	Right	B	18/09/2017	13:38:23	148	TrialSecondaParte	villain	villa	1	1286	2
74	21	Female	Right	B	18/09/2017	13:38:23	149	TrialSecondaParte	candidacy	candid	1	1514	2
74	21	Female	Right	B	18/09/2017	13:38:23	150	TrialSecondaParte	fishy	putt	0	1204	1
74	21	Female	Right	B	18/09/2017	13:38:23	151	TrialTerzaParte	legendary	legend	1	661	2
74	21	Female	Right	B	18/09/2017	13:38:23	152	TrialTerzaParte	asterix	cret	2	980	1
74	21	Female	Right	B	18/09/2017	13:38:23	153	TrialTerzaParte	agreement	agree	1	678	2
74	21	Female	Right	B	18/09/2017	13:38:23	154	TrialTerzaParte	vivacious	vicis	2	688	1
74	21	Female	Right	B	18/09/2017	13:38:23	155	TrialTerzaParte	fabulous	smaply	2	779	1
74	21	Female	Right	B	18/09/2017	13:38:23	156	TrialTerzaParte	swivel	quat	2	888	1
74	21	Female	Right	B	18/09/2017	13:38:23	157	TrialTerzaParte	culprit	cuti	2	895	1
74	21	Female	Right	B	18/09/2017	13:38:23	158	TrialTerzaParte	syphilis	ruar	2	700	1
74	21	Female	Right	B	18/09/2017	13:38:23	159	TrialTerzaParte	splinter	splint	1	1092	1
74	21	Female	Right	B	18/09/2017	13:38:23	160	TrialTerzaParte	maximum	suyte	2	650	1
74	21	Female	Right	B	18/09/2017	13:38:23	161	TrialTerzaParte	misty	stun	0	998	1
74	21	Female	Right	B	18/09/2017	13:38:23	162	TrialTerzaParte	trashy	rell	2	692	1
74	21	Female	Right	B	18/09/2017	13:38:23	163	TrialTerzaParte	foetal	fongs	2	624	1
74	21	Female	Right	B	18/09/2017	13:38:23	164	TrialTerzaParte	routeing	tomed	2	613	1
74	21	Female	Right	B	18/09/2017	13:38:23	165	TrialTerzaParte	centimetres	censar	2	908	1
74	21	Female	Right	B	18/09/2017	13:38:23	166	TrialTerzaParte	moulder	moure	2	814	1
74	21	Female	Right	B	18/09/2017	13:38:23	167	TrialTerzaParte	lately	dial	0	983	2
74	21	Female	Right	B	18/09/2017	13:38:23	168	TrialTerzaParte	postage	poth	2	646	1
74	21	Female	Right	B	18/09/2017	13:38:23	169	TrialTerzaParte	extract	extra	1	668	2
74	21	Female	Right	B	18/09/2017	13:38:23	170	TrialTerzaParte	artistry	artist	1	586	2
74	21	Female	Right	B	18/09/2017	13:38:23	171	TrialTerzaParte	drunkard	drunk	1	564	2
74	21	Female	Right	B	18/09/2017	13:38:23	172	TrialTerzaParte	itinerary	itiner	2	619	1
74	21	Female	Right	B	18/09/2017	13:38:23	173	TrialTerzaParte	glossary	gloss	1	1147	2
74	21	Female	Right	B	18/09/2017	13:38:23	174	TrialTerzaParte	geisha	crove	2	1219	1
74	21	Female	Right	B	18/09/2017	13:38:23	175	TrialTerzaParte	classic	clals	2	972	1
74	21	Female	Right	B	18/09/2017	13:38:23	176	TrialTerzaParte	teacher	teach	1	610	2
74	21	Female	Right	B	18/09/2017	13:38:23	177	TrialTerzaParte	inhibitory	inhibit	1	830	2
74	21	Female	Right	B	18/09/2017	13:38:23	178	TrialTerzaParte	thicket	thick	1	787	2
74	21	Female	Right	B	18/09/2017	13:38:23	179	TrialTerzaParte	lessen	bomb	0	595	2
74	21	Female	Right	B	18/09/2017	13:38:23	180	TrialTerzaParte	absence	agsel	2	537	1
74	21	Female	Right	B	18/09/2017	13:38:23	181	TrialTerzaParte	dusty	dusy	2	989	1
74	21	Female	Right	B	18/09/2017	13:38:23	182	TrialTerzaParte	eruption	erupt	1	828	1
74	21	Female	Right	B	18/09/2017	13:38:23	183	TrialTerzaParte	kingdom	adopt	0	746	2
74	21	Female	Right	B	18/09/2017	13:38:23	184	TrialTerzaParte	lesser	twit	0	933	2
74	21	Female	Right	B	18/09/2017	13:38:23	185	TrialTerzaParte	tributary	calin	2	727	1
74	21	Female	Right	B	18/09/2017	13:38:23	186	TrialTerzaParte	happy	sigh	0	646	2
74	21	Female	Right	B	18/09/2017	13:38:23	187	TrialTerzaParte	stubborn	stub	1	825	1
74	21	Female	Right	B	18/09/2017	13:38:23	188	TrialTerzaParte	audition	audit	1	1340	1
74	21	Female	Right	B	18/09/2017	13:38:23	189	TrialTerzaParte	feudal	arch	0	1248	1
74	21	Female	Right	B	18/09/2017	13:38:23	190	TrialTerzaParte	greenery	green	1	629	2
74	21	Female	Right	B	18/09/2017	13:38:23	191	TrialTerzaParte	bourbon	boun	2	813	1
74	21	Female	Right	B	18/09/2017	13:38:23	192	TrialTerzaParte	yearly	acid	0	655	2
74	21	Female	Right	B	18/09/2017	13:38:23	193	TrialTerzaParte	lively	licey	2	703	1
74	21	Female	Right	B	18/09/2017	13:38:23	194	TrialTerzaParte	socialiser	flepity	2	655	1
74	21	Female	Right	B	18/09/2017	13:38:23	195	TrialTerzaParte	stroke	cligh	2	607	1
74	21	Female	Right	B	18/09/2017	13:38:23	196	TrialTerzaParte	electron	elect	1	679	2
74	21	Female	Right	B	18/09/2017	13:38:23	197	TrialTerzaParte	airtight	aith	2	539	1
74	21	Female	Right	B	18/09/2017	13:38:23	198	TrialTerzaParte	highlight	gylpo	2	544	1
74	21	Female	Right	B	18/09/2017	13:38:23	199	TrialTerzaParte	monastery	fagor	2	632	1
74	21	Female	Right	B	18/09/2017	13:38:23	200	TrialTerzaParte	leaflet	organ	0	619	2
74	21	Female	Right	B	18/09/2017	13:38:23	201	TrialTerzaParte	lovers	flesh	0	660	2
74	21	Female	Right	B	18/09/2017	13:38:23	202	TrialTerzaParte	rebound	cous	2	1091	1
74	21	Female	Right	B	18/09/2017	13:38:23	203	TrialTerzaParte	floater	float	1	1099	2
74	21	Female	Right	B	18/09/2017	13:38:23	204	TrialTerzaParte	thorny	marsh	0	702	1
74	21	Female	Right	B	18/09/2017	13:38:23	205	TrialTerzaParte	snobbery	snotty	2	723	1
74	21	Female	Right	B	18/09/2017	13:38:23	206	TrialTerzaParte	fixture	strul	2	1046	1
74	21	Female	Right	B	18/09/2017	13:38:23	207	TrialTerzaParte	fanatic	fanty	2	676	1
74	21	Female	Right	B	18/09/2017	13:38:23	208	TrialTerzaParte	damsel	dalp	2	621	1
74	21	Female	Right	B	18/09/2017	13:38:23	209	TrialTerzaParte	safely	brand	0	482	1
74	21	Female	Right	B	18/09/2017	13:38:23	210	TrialTerzaParte	abstract	fewtu	2	524	1
74	21	Female	Right	B	18/09/2017	13:38:23	211	TrialTerzaParte	angelic	angel	1	556	2
74	21	Female	Right	B	18/09/2017	13:38:23	212	TrialTerzaParte	liquidate	liquid	1	543	2
74	21	Female	Right	B	18/09/2017	13:38:23	213	TrialTerzaParte	crummy	meye	2	567	1
74	21	Female	Right	B	18/09/2017	13:38:23	214	TrialTerzaParte	biscuit	bist	2	869	1
74	21	Female	Right	B	18/09/2017	13:38:23	215	TrialTerzaParte	killer	lalf	2	701	1
74	21	Female	Right	B	18/09/2017	13:38:23	216	TrialTerzaParte	brothel	broth	1	912	1
74	21	Female	Right	B	18/09/2017	13:38:23	217	TrialTerzaParte	against	again	1	707	2
74	21	Female	Right	B	18/09/2017	13:38:23	218	TrialTerzaParte	dietary	diet	1	614	2
74	21	Female	Right	B	18/09/2017	13:38:23	219	TrialTerzaParte	difference	difrol	2	636	1
74	21	Female	Right	B	18/09/2017	13:38:23	220	TrialTerzaParte	thinly	golf	0	570	2
74	21	Female	Right	B	18/09/2017	13:38:23	221	TrialTerzaParte	infantry	infant	1	539	2
74	21	Female	Right	B	18/09/2017	13:38:23	222	TrialTerzaParte	plaintiff	plain	1	747	2
74	21	Female	Right	B	18/09/2017	13:38:23	223	TrialTerzaParte	finely	chill	0	587	2
74	21	Female	Right	B	18/09/2017	13:38:23	224	TrialTerzaParte	original	orive	2	649	1
74	21	Female	Right	B	18/09/2017	13:38:23	225	TrialTerzaParte	inherent	inpock	2	639	1
74	21	Female	Right	B	18/09/2017	13:38:23	226	TrialQuartaParte	veteran	venic	2	689	1
74	21	Female	Right	B	18/09/2017	13:38:23	227	TrialQuartaParte	colonel	colon	1	660	2
74	21	Female	Right	B	18/09/2017	13:38:23	228	TrialQuartaParte	textile	text	1	786	2
74	21	Female	Right	B	18/09/2017	13:38:23	229	TrialQuartaParte	category	cagre	2	648	1
74	21	Female	Right	B	18/09/2017	13:38:23	230	TrialQuartaParte	watery	cream	0	523	2
74	21	Female	Right	B	18/09/2017	13:38:23	231	TrialQuartaParte	hatchery	fighy	2	545	1
74	21	Female	Right	B	18/09/2017	13:38:23	232	TrialQuartaParte	dragon	dron	2	1022	2
74	21	Female	Right	B	18/09/2017	13:38:23	233	TrialQuartaParte	filmy	plus	0	579	2
74	21	Female	Right	B	18/09/2017	13:38:23	234	TrialQuartaParte	fleeting	fleet	1	1180	1
74	21	Female	Right	B	18/09/2017	13:38:23	235	TrialQuartaParte	reaction	react	1	615	2
74	21	Female	Right	B	18/09/2017	13:38:23	236	TrialQuartaParte	renewable	renew	1	572	1
74	21	Female	Right	B	18/09/2017	13:38:23	237	TrialQuartaParte	widen	amp	0	760	1
74	21	Female	Right	B	18/09/2017	13:38:23	238	TrialQuartaParte	bridal	glut	0	810	1
74	21	Female	Right	B	18/09/2017	13:38:23	239	TrialQuartaParte	criminal	huare	2	650	1
74	21	Female	Right	B	18/09/2017	13:38:23	240	TrialQuartaParte	piratical	pirent	2	768	1
74	21	Female	Right	B	18/09/2017	13:38:23	241	TrialQuartaParte	olympic	olick	2	650	1
74	21	Female	Right	B	18/09/2017	13:38:23	242	TrialQuartaParte	tackler	lerf	2	569	1
74	21	Female	Right	B	18/09/2017	13:38:23	243	TrialQuartaParte	education	educon	2	680	1
74	21	Female	Right	B	18/09/2017	13:38:23	244	TrialQuartaParte	buzzard	buzz	1	1221	1
74	21	Female	Right	B	18/09/2017	13:38:23	245	TrialQuartaParte	question	quest	1	858	1
74	21	Female	Right	B	18/09/2017	13:38:23	246	TrialQuartaParte	adviser	flick	0	705	1
74	21	Female	Right	B	18/09/2017	13:38:23	247	TrialQuartaParte	editor	plan	0	1036	2
74	21	Female	Right	B	18/09/2017	13:38:23	248	TrialQuartaParte	touchy	fizz	0	562	1
74	21	Female	Right	B	18/09/2017	13:38:23	249	TrialQuartaParte	sudden	verty	2	815	1
74	21	Female	Right	B	18/09/2017	13:38:23	250	TrialQuartaParte	ribbon	ribed	2	792	1
74	21	Female	Right	B	18/09/2017	13:38:23	251	TrialQuartaParte	fruitless	fruit	1	698	2
74	21	Female	Right	B	18/09/2017	13:38:23	252	TrialQuartaParte	snobby	snool	2	781	1
74	21	Female	Right	B	18/09/2017	13:38:23	253	TrialQuartaParte	acreage	acre	1	782	1
74	21	Female	Right	B	18/09/2017	13:38:23	254	TrialQuartaParte	yardage	yage	2	612	1
74	21	Female	Right	B	18/09/2017	13:38:23	255	TrialQuartaParte	gifted	pulp	0	777	2
74	21	Female	Right	B	18/09/2017	13:38:23	256	TrialQuartaParte	vigilant	vigan	2	855	1
74	21	Female	Right	B	18/09/2017	13:38:23	257	TrialQuartaParte	neutron	whese	2	588	1
74	21	Female	Right	B	18/09/2017	13:38:23	258	TrialQuartaParte	reliable	blidar	2	574	1
74	21	Female	Right	B	18/09/2017	13:38:23	259	TrialQuartaParte	tripper	mourn	0	1497	1
74	21	Female	Right	B	18/09/2017	13:38:23	260	TrialQuartaParte	opposition	nunfy	2	591	1
74	21	Female	Right	B	18/09/2017	13:38:23	261	TrialQuartaParte	ceramic	cerbs	2	656	1
74	21	Female	Right	B	18/09/2017	13:38:23	262	TrialQuartaParte	gluteal	abtle	2	632	1
74	21	Female	Right	B	18/09/2017	13:38:23	263	TrialQuartaParte	kinetic	kinse	2	522	1
74	21	Female	Right	B	18/09/2017	13:38:23	264	TrialQuartaParte	international	intern	1	918	1
74	21	Female	Right	B	18/09/2017	13:38:23	265	TrialQuartaParte	roller	quart	0	1051	2
74	21	Female	Right	B	18/09/2017	13:38:23	266	TrialQuartaParte	muffler	coast	0	670	2
74	21	Female	Right	B	18/09/2017	13:38:23	267	TrialQuartaParte	arsenal	arse	1	568	1
74	21	Female	Right	B	18/09/2017	13:38:23	268	TrialQuartaParte	wishful	toast	0	525	2
74	21	Female	Right	B	18/09/2017	13:38:23	269	TrialQuartaParte	analogy	anopy	2	532	1
74	21	Female	Right	B	18/09/2017	13:38:23	270	TrialQuartaParte	stampede	stamp	1	745	2
74	21	Female	Right	B	18/09/2017	13:38:23	271	TrialQuartaParte	halogen	haly	2	610	1
74	21	Female	Right	B	18/09/2017	13:38:23	272	TrialQuartaParte	dysentery	ranin	2	755	1
74	21	Female	Right	B	18/09/2017	13:38:23	273	TrialQuartaParte	scrooge	plich	2	617	1
74	21	Female	Right	B	18/09/2017	13:38:23	274	TrialQuartaParte	naughty	troll	0	683	2
74	21	Female	Right	B	18/09/2017	13:38:23	275	TrialQuartaParte	fatal	fids	2	584	1
74	21	Female	Right	B	18/09/2017	13:38:23	276	TrialQuartaParte	traffic	trepy	2	617	1
74	21	Female	Right	B	18/09/2017	13:38:23	277	TrialQuartaParte	brisket	brisk	1	700	1
74	21	Female	Right	B	18/09/2017	13:38:23	278	TrialQuartaParte	muffin	mufir	2	588	1
74	21	Female	Right	B	18/09/2017	13:38:23	279	TrialQuartaParte	haulier	halfe	2	527	1
74	21	Female	Right	B	18/09/2017	13:38:23	280	TrialQuartaParte	firmly	heave	0	917	1
74	21	Female	Right	B	18/09/2017	13:38:23	281	TrialQuartaParte	daring	dalig	2	849	1
74	21	Female	Right	B	18/09/2017	13:38:23	282	TrialQuartaParte	lethal	lerd	2	759	1
74	21	Female	Right	B	18/09/2017	13:38:23	283	TrialQuartaParte	chatter	trump	0	894	2
74	21	Female	Right	B	18/09/2017	13:38:23	284	TrialQuartaParte	keeper	gala	0	1103	2
74	21	Female	Right	B	18/09/2017	13:38:23	285	TrialQuartaParte	scullery	scull	1	723	1
74	21	Female	Right	B	18/09/2017	13:38:23	286	TrialQuartaParte	grueling	gruel	1	625	1
74	21	Female	Right	B	18/09/2017	13:38:23	287	TrialQuartaParte	oxygenate	oxygen	1	526	1
74	21	Female	Right	B	18/09/2017	13:38:23	288	TrialQuartaParte	dreamer	dream	1	540	2
74	21	Female	Right	B	18/09/2017	13:38:23	289	TrialQuartaParte	bubble	glef	2	495	1
74	21	Female	Right	B	18/09/2017	13:38:23	290	TrialQuartaParte	polite	tind	2	1035	1
74	21	Female	Right	B	18/09/2017	13:38:23	291	TrialQuartaParte	government	govern	1	729	2
74	21	Female	Right	B	18/09/2017	13:38:23	292	TrialQuartaParte	supplant	plosy	2	948	1
74	21	Female	Right	B	18/09/2017	13:38:23	293	TrialQuartaParte	angler	treat	0	667	2
74	21	Female	Right	B	18/09/2017	13:38:23	294	TrialQuartaParte	awaken	tood	2	1277	2
74	21	Female	Right	B	18/09/2017	13:38:23	295	TrialQuartaParte	desert	dert	2	982	1
74	21	Female	Right	B	18/09/2017	13:38:23	296	TrialQuartaParte	linkage	flion	2	902	1
74	21	Female	Right	B	18/09/2017	13:38:23	297	TrialQuartaParte	northern	north	1	1384	2
74	21	Female	Right	B	18/09/2017	13:38:23	298	TrialQuartaParte	rancour	brits	2	671	1
74	21	Female	Right	B	18/09/2017	13:38:23	299	TrialQuartaParte	plonking	pluny	2	641	1
74	21	Female	Right	B	18/09/2017	13:38:23	300	TrialQuartaParte	message	rosty	2	1261	2
